"Time (s)","Gyroscope x (rad/s)","Gyroscope y (rad/s)","Gyroscope z (rad/s)","Absolute (rad/s)"
4.844083334E-3,-8.692527190E-3,-2.064850181E-3,-6.894944236E-4,8.960973037E-3
1.488308333E-2,-8.550580591E-3,-1.565241255E-3,-1.395498402E-3,8.803966403E-3
2.492208333E-2,-8.057152852E-3,-4.813331179E-3,-3.771766322E-3,1.011494391E-2
3.496108333E-2,-7.985780016E-3,-3.482755274E-4,-3.501455532E-3,8.726635614E-3
4.500108333E-2,-7.262189873E-3,-4.201100208E-3,-6.340026855E-3,1.051592056E-2
5.504008333E-2,-6.992411334E-3,-2.107588574E-3,-5.747207440E-3,9.293338433E-3
6.507908333E-2,-6.191470660E-3,-2.686943859E-3,-6.700665224E-3,9.510672462E-3
7.511808333E-2,-8.856762201E-3,-3.416916355E-3,-9.970760904E-3,1.376712123E-2
8.515708333E-2,-6.191101857E-3,-3.865965642E-3,-9.628244676E-3,1.208215743E-2
9.519608333E-2,-5.293882918E-3,-2.283514477E-3,-1.020295452E-2,1.171921139E-2
1.052350833E-1,-5.860500038E-3,-1.546660438E-3,-1.288046222E-2,1.423530563E-2
1.152740833E-1,-5.344645586E-3,-7.413197309E-4,-1.167484932E-2,1.286145007E-2
1.253140833E-1,-4.717272706E-3,-1.594398171E-3,-1.307596080E-2,1.399198049E-2
1.353530833E-1,-4.464272410E-3,-2.431428991E-3,-1.300884876E-2,1.396680784E-2
1.453920833E-1,-4.690769129E-3,-9.234296158E-4,-1.177256368E-2,1.270626983E-2
1.554310833E-1,-6.356043741E-3,-1.207321882E-3,-1.286339480E-2,1.439874453E-2
1.654700833E-1,-8.556716144E-3,-3.042034805E-4,-9.952326305E-3,1.312854637E-2
1.755090833E-1,-5.948416423E-3,-3.165770322E-3,-1.195715368E-2,1.372513329E-2
1.855480833E-1,-7.402967662E-3,-1.947572455E-3,-1.045404468E-2,1.295700655E-2
1.955870833E-1,-8.668768220E-3,3.051953390E-4,-1.017894037E-2,1.337353782E-2
2.056270833E-1,-7.924541831E-3,-2.330949530E-3,-1.313793194E-2,1.551892214E-2
2.156660833E-1,-8.806315251E-3,-5.293209106E-4,-1.335631125E-2,1.600694909E-2
2.257050833E-1,-6.490635686E-3,-4.195179790E-4,-1.276302710E-2,1.432477601E-2
2.357440833E-1,-7.821950130E-3,8.071335033E-4,-1.380032860E-2,1.588343281E-2
2.457830833E-1,-7.743736729E-3,-7.316451520E-4,-1.594056003E-2,1.773702955E-2
2.558220833E-1,-8.525640704E-3,-4.561431706E-5,-1.744684391E-2,1.941857339E-2
2.658610833E-1,-7.618902251E-3,1.040026546E-4,-1.960775256E-2,2.103621754E-2
2.759010833E-1,-8.199204691E-3,-5.765073001E-5,-2.170312777E-2,2.320034561E-2
2.859400833E-1,-8.842847310E-3,2.106428146E-4,-2.129662968E-2,2.306050205E-2
2.959787917E-1,-6.313908845E-3,-1.148634590E-3,-1.837034896E-2,1.945904744E-2
3.060177917E-1,-6.235909648E-3,-1.447618008E-3,-1.796981879E-2,1.907607282E-2
3.160567917E-1,-3.674214706E-3,8.959639817E-4,-1.696900278E-2,1.738532889E-2
3.260957917E-1,-3.020933131E-3,-7.517468184E-4,-1.753935963E-2,1.781348636E-2
3.361347917E-1,-2.443293575E-3,-1.048689708E-3,-1.667330042E-2,1.688396815E-2
3.461737917E-1,-1.263188664E-3,-8.600549772E-4,-1.613488048E-2,1.620708821E-2
3.562137917E-1,-1.085289405E-3,-1.267785206E-3,-1.470156573E-2,1.479598484E-2
3.662527917E-1,-5.207111826E-4,-2.167355269E-3,-1.463161595E-2,1.480043088E-2
3.762917917E-1,1.059342292E-3,-1.824073493E-3,-1.524760574E-2,1.539282076E-2
3.863307917E-1,1.518749399E-3,-2.601762302E-3,-1.612662338E-2,1.640560113E-2
3.963697917E-1,3.142212518E-3,-2.882726490E-3,-1.469570771E-2,1.530187690E-2
4.064087917E-1,3.679638263E-3,-2.673401497E-3,-1.681052335E-2,1.741495072E-2
4.164477917E-1,5.147838965E-3,-3.057695925E-3,-1.621051319E-2,1.728092845E-2
4.264867917E-1,4.929633811E-3,-4.718700424E-3,-1.795029826E-2,1.920366192E-2
4.365267917E-1,8.208251558E-3,-4.716835916E-3,-1.694628596E-2,1.941135087E-2
4.465657917E-1,7.083239034E-3,-6.031345576E-3,-1.819152012E-2,2.043234713E-2
4.566047917E-1,6.931971759E-3,-6.243066862E-3,-1.779311150E-2,2.009036917E-2
4.666437917E-1,8.740372956E-3,-7.660221308E-3,-1.587151550E-2,1.967175930E-2
4.766827917E-1,8.669266477E-3,-8.142519742E-3,-1.486990042E-2,1.904129059E-2
4.867217917E-1,9.482912719E-3,-7.111767307E-3,-1.195816137E-2,1.683747283E-2
4.967607917E-1,1.006854139E-2,-7.985550910E-3,-9.696071967E-3,1.609839622E-2
5.067997917E-1,9.223169647E-3,-6.726143882E-3,-7.846090943E-3,1.385167907E-2
5.168397917E-1,8.913444355E-3,-5.513606593E-3,-8.163539693E-3,1.328505658E-2
5.268787917E-1,1.049033646E-2,-7.066337392E-3,-5.425532814E-3,1.376287359E-2
5.369177917E-1,8.986182511E-3,-6.951554678E-3,-3.335750196E-3,1.184072709E-2
5.469567917E-1,8.403645828E-3,-7.178948261E-3,-3.696643980E-3,1.165434417E-2
5.569957917E-1,8.370888419E-3,-7.740876637E-3,-2.307539340E-3,1.163261286E-2
5.670347917E-1,8.107154630E-3,-7.093746215E-3,-1.822426682E-3,1.092558605E-2
5.770737917E-1,7.450685836E-3,-7.343551144E-3,-1.396587119E-3,1.055418961E-2
5.871137917E-1,7.243562490E-3,-7.359480485E-3,3.073266707E-4,1.033080831E-2
5.971527917E-1,5.468831398E-3,-5.427889526E-3,2.462889533E-3,8.089247580E-3
6.071917917E-1,5.059842020E-3,-5.396414548E-3,2.420304343E-3,7.783390287E-3
6.172307917E-1,5.816180259E-3,-5.264321342E-3,3.550549969E-3,8.610890609E-3
6.272697917E-1,3.007538384E-3,-5.637480877E-3,4.688227084E-3,7.925020565E-3
6.373087917E-1,3.424589289E-3,-6.799683906E-3,5.875197705E-3,9.616728191E-3
6.473477917E-1,3.431467339E-3,-7.777724415E-3,6.647677161E-3,1.079164384E-2
6.573867917E-1,4.478888586E-3,-5.641603842E-3,7.605882362E-3,1.047557079E-2
6.674267917E-1,3.788885428E-3,-6.961791776E-3,9.331529029E-3,1.224335050E-2
6.774657917E-1,5.160146393E-3,-6.585220806E-3,9.716621600E-3,1.282205051E-2
6.875047917E-1,4.796138965E-3,-7.900429890E-3,1.119185146E-2,1.451472633E-2
6.975437917E-1,5.603609607E-3,-6.678837352E-3,9.686632082E-3,1.303219667E-2
7.075827917E-1,5.897321273E-3,-8.850803599E-3,1.181768253E-2,1.589882835E-2
7.176217917E-1,5.816095043E-3,-6.411614828E-3,1.003283262E-2,1.325116963E-2
7.276607917E-1,6.247227546E-3,-8.042976260E-3,1.092657726E-2,1.493678044E-2
7.376997917E-1,7.457368076E-3,-9.388139471E-3,8.819751441E-3,1.488413642E-2
7.477397917E-1,8.233746514E-3,-9.094856679E-3,8.195528761E-3,1.475390427E-2
7.577787917E-1,6.304287352E-3,-9.015494958E-3,6.568070501E-3,1.281260077E-2
7.678177917E-1,1.125598419E-2,-1.008579787E-2,5.279482342E-3,1.600916714E-2
7.778567917E-1,9.793641977E-3,-8.206938393E-3,5.835550837E-3,1.404716749E-2
7.878957917E-1,1.096920762E-2,-9.431065992E-3,2.663297579E-3,1.470923776E-2
7.979347917E-1,1.138759032E-2,-8.780188859E-3,2.864898648E-3,1.466207945E-2
8.079737917E-1,1.179724466E-2,-8.436828852E-3,1.076784916E-3,1.454353906E-2
8.180127917E-1,1.239192858E-2,-1.063340344E-2,-3.866222687E-4,1.633335971E-2
8.280527917E-1,9.800647385E-3,-9.948891588E-3,-1.122640679E-3,1.401047662E-2
8.380917917E-1,1.295542810E-2,-8.070032112E-3,-3.148773685E-3,1.558471403E-2
8.481307917E-1,1.331629790E-2,-9.444253519E-3,-4.777736496E-3,1.701012876E-2
8.581697917E-1,1.422896329E-2,-7.793892175E-3,-6.686157547E-3,1.754744581E-2
8.682087917E-1,1.341679133E-2,-8.726809174E-3,-6.703525782E-3,1.735237004E-2
8.782477917E-1,1.306605339E-2,-7.461806759E-3,-8.592772298E-3,1.732732083E-2
8.882867917E-1,1.317826845E-2,-8.765985258E-3,-7.944082841E-3,1.770925490E-2
8.983267917E-1,1.473195665E-2,-7.523619570E-3,-7.592278533E-3,1.820104644E-2
9.083657917E-1,1.168751996E-2,-7.207228802E-3,-9.052283131E-3,1.644646162E-2
9.184047917E-1,1.255943906E-2,-7.585664280E-3,-7.123355754E-3,1.631024246E-2
9.284437917E-1,1.063021272E-2,-7.580246776E-3,-9.391048923E-3,1.608270387E-2
9.384827917E-1,1.007334515E-2,-5.838274024E-3,-8.993971162E-3,1.471221409E-2
9.485217917E-1,1.060127560E-2,-6.051868200E-3,-9.000953287E-3,1.516671728E-2
9.585607917E-1,9.574893862E-3,-6.222310476E-3,-1.108993776E-2,1.591799170E-2
9.685997917E-1,8.529152721E-3,-5.080859177E-3,-1.010471769E-2,1.416569432E-2
9.786397917E-1,7.958703674E-3,-5.239849910E-3,-1.040911674E-2,1.411193476E-2
9.886787917E-1,6.209768821E-3,-4.470604472E-3,-1.060833223E-2,1.307991766E-2
9.987177917E-1,6.786875892E-3,-4.386449233E-3,-9.376087226E-3,1.237794946E-2
1.008756792E0,6.009973120E-3,-4.907993600E-3,-8.630333468E-3,1.160563802E-2
1.018795792E0,4.095160402E-3,-3.644590266E-3,-9.145922028E-3,1.066307960E-2
1.028834792E0,3.037121147E-3,-4.921417683E-3,-7.726712152E-3,9.651245389E-3
1.038873792E0,3.139652777E-3,-4.168542102E-3,-7.785302121E-3,9.372571255E-3
1.048912792E0,4.314824939E-3,-3.473210149E-3,-6.098038517E-3,8.238141583E-3
1.058952792E0,2.262326656E-3,-3.285457380E-3,-5.343831144E-3,6.668499336E-3
1.068991792E0,2.416905947E-3,-3.167300485E-3,-3.743411275E-3,5.466841382E-3
1.079030792E0,2.979099285E-3,-3.358249553E-3,-4.681110382E-3,6.485805040E-3
1.089069792E0,2.516277134E-3,-2.835297026E-3,-2.381456085E-3,4.476817276E-3
1.099108792E0,3.528811038E-3,-3.033968620E-3,-1.539364457E-3,4.901746205E-3
1.109147792E0,2.824384952E-3,-3.049829975E-4,-1.164044254E-3,3.070042998E-3
1.119186792E0,5.462512374E-3,-1.293548383E-3,2.052788157E-3,5.977143805E-3
1.129225792E0,3.130563535E-3,-1.684503630E-3,2.710737288E-3,4.470579064E-3
1.139265792E0,5.726080388E-3,-2.876534127E-3,1.775967889E-3,6.649549393E-3
1.149304792E0,3.461293876E-3,-1.279329881E-3,3.959483001E-3,5.412462090E-3
1.159343792E0,4.278351553E-3,1.587774605E-4,1.686208416E-3,4.601391215E-3
1.169382792E0,5.058776587E-3,-1.362257637E-3,5.141521804E-3,7.340450456E-3
1.179421792E0,5.345333368E-3,-4.229610786E-4,4.732727073E-3,7.151936132E-3
1.189460792E0,4.452267662E-3,8.455608040E-4,4.909256939E-3,6.681202294E-3
1.199499792E0,5.602487363E-3,5.214540288E-4,4.781159107E-3,7.383715959E-3
1.209538792E0,5.053492729E-3,-4.523759708E-4,4.412983544E-3,6.724348038E-3
1.219578792E0,4.930987488E-3,3.843884915E-4,7.239928469E-3,8.768064573E-3
1.229617792E0,6.908107549E-3,-4.749828950E-4,5.186005495E-3,8.651139327E-3
1.239656792E0,7.704392076E-3,3.599179909E-4,5.285607651E-3,9.350125478E-3
1.249695792E0,4.708891734E-3,1.046951860E-3,6.671437528E-3,8.232730304E-3
1.259734792E0,5.448451731E-3,2.621679101E-3,4.359014798E-3,7.453847167E-3
1.269773792E0,5.434730556E-3,3.239148762E-3,6.613866426E-3,9.152683214E-3
1.279812792E0,4.645369481E-3,2.650856506E-3,5.057248287E-3,7.360859873E-3
1.289851792E0,1.894660061E-3,3.789674956E-3,6.596577354E-3,7.840038636E-3
1.299892708E0,3.940500319E-3,2.877009567E-3,7.041059434E-3,8.566285354E-3
1.309931708E0,2.619817853E-3,4.237678833E-3,5.429930054E-3,7.369227087E-3
1.319970708E0,3.106377553E-3,2.341508400E-3,6.337534636E-3,7.436167585E-3
1.330009708E0,1.802792307E-3,2.280164510E-3,5.644324236E-3,6.348827165E-3
1.340048708E0,8.781427750E-4,4.266882781E-3,5.974556319E-3,7.394102151E-3
1.350087708E0,-4.506934783E-4,4.864783026E-3,7.560051978E-3,9.001312371E-3
1.360126708E0,-2.962301369E-4,4.018430132E-3,5.646304227E-3,6.936590261E-3
1.370166708E0,-1.583428239E-3,4.251733422E-3,3.482011147E-3,5.719168096E-3
1.380205708E0,-2.832983388E-3,4.857868887E-3,3.231940325E-3,6.486148570E-3
1.390244708E0,-4.765278194E-3,6.143913604E-3,2.373816911E-3,8.129609915E-3
1.400283708E0,-4.975401796E-3,4.378770478E-3,5.495515652E-4,6.650583498E-3
1.410322708E0,-6.157812197E-3,6.271890365E-3,6.965645589E-4,8.817055176E-3
1.420361708E0,-6.378854625E-3,6.564837880E-3,-2.069394570E-3,9.384523249E-3
1.430400708E0,-6.241053808E-3,4.978586920E-3,-1.999225002E-3,8.230065672E-3
1.440439708E0,-6.212824490E-3,5.875006784E-3,-4.545207135E-3,9.683687353E-3
1.450479708E0,-6.655449979E-3,7.401574869E-3,-5.531196017E-3,1.138738136E-2
1.460518708E0,-7.191011682E-3,5.769855808E-3,-6.649723742E-3,1.136752880E-2
1.470557708E0,-7.666908205E-3,6.105087698E-3,-6.930067204E-3,1.200330824E-2
1.480596708E0,-7.942278869E-3,6.938656792E-3,-6.498901173E-3,1.238791622E-2
1.490635708E0,-8.292346261E-3,6.467394531E-3,-7.866389118E-3,1.313279393E-2
1.500674708E0,-8.954407647E-3,5.428229459E-3,-8.815806359E-3,1.368815302E-2
1.510713708E0,-8.494316600E-3,6.005940493E-3,-6.249345839E-3,1.213585840E-2
1.520752708E0,-8.112419397E-3,5.914860405E-3,-7.792381570E-3,1.270897842E-2
1.530792708E0,-7.225011010E-3,7.338967640E-3,-8.607743308E-3,1.342216357E-2
1.540831708E0,-8.907862939E-3,6.105924025E-3,-7.528098300E-3,1.316452029E-2
1.550870708E0,-7.784655318E-3,7.056476548E-3,-1.064172760E-2,1.495463426E-2
1.560909708E0,-7.731658407E-3,6.331031676E-3,-7.741811220E-3,1.264104999E-2
1.570948708E0,-7.464742288E-3,5.860252306E-3,-7.959634066E-3,1.238631135E-2
1.580987708E0,-7.915348746E-3,6.139617413E-3,-6.853357889E-3,1.213738696E-2
1.591026708E0,-6.434885785E-3,6.106297486E-3,-7.648217957E-3,1.171280760E-2
1.601065708E0,-7.815468125E-3,6.264222786E-3,-7.444752380E-3,1.247983843E-2
1.611105708E0,-6.809419021E-3,7.024565712E-3,-5.483809393E-3,1.121538570E-2
1.621144708E0,-6.774798036E-3,4.890042357E-3,-5.490466952E-3,9.997781255E-3
1.631183708E0,-6.567371543E-3,6.020128727E-3,-4.312561825E-3,9.898005272E-3
1.641222708E0,-7.605472114E-3,5.328239407E-3,-4.991667811E-3,1.054277425E-2
1.651261708E0,-6.188566331E-3,4.130026791E-3,-2.037124243E-3,7.713971072E-3
1.661300708E0,-7.113482337E-3,5.689308047E-3,-3.702514805E-4,9.116300959E-3
1.671339708E0,-5.522765219E-3,5.352919921E-3,-1.624507131E-3,7.860897580E-3
1.681378708E0,-6.147276610E-3,4.344114568E-3,1.454106998E-3,7.666470391E-3
1.691418708E0,-6.567175500E-3,5.185161252E-3,6.283759139E-4,8.390980130E-3
1.701457708E0,-7.227106951E-3,4.199258983E-3,1.510681584E-3,8.493939589E-3
1.711496708E0,-6.016700529E-3,4.168100189E-3,3.049189691E-3,7.929142590E-3
1.721535708E0,-8.354688995E-3,6.175324321E-3,3.966648132E-3,1.112069045E-2
1.731574708E0,-7.575008087E-3,5.407545250E-3,5.138496868E-3,1.063138952E-2
1.741613708E0,-9.236820973E-3,5.275718868E-3,4.747545347E-3,1.164865907E-2
1.751652708E0,-1.004406065E-2,7.014603820E-3,6.531852297E-3,1.388354837E-2
1.761692708E0,-9.990263730E-3,4.108562600E-3,6.671668030E-3,1.269633059E-2
1.771731708E0,-1.064858586E-2,3.850205336E-3,6.239796057E-3,1.292870901E-2
1.781770708E0,-1.038120408E-2,3.584688064E-3,5.833397619E-3,1.243575146E-2
1.791809708E0,-1.203253586E-2,3.726874478E-3,7.195547223E-3,1.450680573E-2
1.801848708E0,-1.173639204E-2,3.830471542E-3,7.443486713E-3,1.441599476E-2
1.811887708E0,-1.216760371E-2,2.519802190E-3,7.370679174E-3,1.444738366E-2
1.821926708E0,-1.288852189E-2,4.155515693E-3,6.178914104E-3,1.488493489E-2
1.831965708E0,-1.451677829E-2,4.517439287E-3,7.257228252E-3,1.684670506E-2
1.842005708E0,-1.470133476E-2,3.986138850E-3,6.882521790E-3,1.671489314E-2
1.852044708E0,-1.328379475E-2,3.814016934E-3,7.666625082E-3,1.580452683E-2
1.862083708E0,-1.332214475E-2,2.632106189E-3,4.794139415E-3,1.440108664E-2
1.872122708E0,-1.423210092E-2,3.829325549E-3,4.987322725E-3,1.555923580E-2
1.882161708E0,-1.300971024E-2,2.417051233E-3,4.298895597E-3,1.391313051E-2
1.892200708E0,-1.305721700E-2,8.681975305E-4,4.695937503E-3,1.390311159E-2
1.902239708E0,-1.154001430E-2,1.429059077E-3,3.567556385E-3,1.216312453E-2
1.912278708E0,-1.242294535E-2,4.240078852E-4,4.450987559E-3,1.320305435E-2
1.922318708E0,-1.253586262E-2,1.505517401E-3,2.955889329E-3,1.296733265E-2
1.932357708E0,-1.240984909E-2,-7.026623935E-4,2.914445009E-3,1.276683511E-2
1.942396708E0,-1.170677505E-2,-7.513985038E-4,2.061700914E-3,1.191065878E-2
1.952435708E0,-1.099214517E-2,3.740116954E-4,1.159989741E-3,1.105950796E-2
1.962474708E0,-1.007122360E-2,-6.792685017E-4,8.079200052E-4,1.012638560E-2
1.972513708E0,-1.033082418E-2,-1.213666983E-3,-1.509631751E-3,1.051084696E-2
1.982552708E0,-9.989939630E-3,-9.228494018E-4,-1.564759295E-3,1.015376859E-2
1.992591708E0,-7.872865535E-3,-3.082524054E-3,-2.515820554E-3,8.821185824E-3
2.002631708E0,-7.951162755E-3,-7.314858958E-4,-5.062335171E-3,9.454274068E-3
2.012670708E0,-7.960854098E-3,-1.538382843E-3,-2.727843821E-3,8.554703482E-3
2.022709708E0,-5.896903574E-3,-2.382870764E-3,-2.647149842E-3,6.889045444E-3
2.032748708E0,-6.358742248E-3,-2.636532299E-3,-4.905082285E-3,8.452498907E-3
2.042787708E0,-5.646080244E-3,-4.218184389E-3,-5.826801993E-3,9.144557022E-3
2.052826708E0,-4.914452787E-3,-3.909159452E-3,-5.759759340E-3,8.521044624E-3
2.062865708E0,-4.011374898E-3,-4.278806038E-3,-5.196234677E-3,7.835825707E-3
2.072904708E0,-4.789121449E-3,-4.327768460E-3,-4.700921942E-3,7.985232069E-3
2.082944708E0,-4.924942274E-3,-5.648164079E-3,-4.568030126E-3,8.776315462E-3
2.092983708E0,-4.539421294E-3,-4.251012579E-3,-5.414948333E-3,8.246157837E-3
2.103022708E0,-5.044356454E-3,-5.830532871E-3,-7.105256431E-3,1.048452739E-2
2.113061708E0,-4.664091393E-3,-5.017644726E-3,-6.309251301E-3,9.313278644E-3
2.123100708E0,-5.656651687E-3,-5.040814169E-3,-6.399798673E-3,9.917910004E-3
2.133139708E0,-5.012236536E-3,-5.040865391E-3,-6.456546485E-3,9.603115718E-3
2.143178708E0,-5.137139000E-3,-5.434214137E-3,-6.108205300E-3,9.655622838E-3
2.153218708E0,-5.639040377E-3,-5.408422090E-3,-5.973945837E-3,9.835539372E-3
2.163257708E0,-6.223071367E-3,-5.198831670E-3,-4.259669222E-3,9.159653369E-3
2.173296708E0,-6.792548578E-3,-4.440353252E-3,-5.353372078E-3,9.721833459E-3
2.183335708E0,-6.260449067E-3,-4.979110323E-3,-4.024721216E-3,8.954504062E-3
2.193374708E0,-8.784778416E-3,-5.910398439E-3,-3.005946521E-3,1.100640068E-2
2.203413708E0,-6.943202112E-3,-4.787876271E-3,-3.344967030E-3,9.073071100E-3
2.213452708E0,-8.443465456E-3,-4.782508127E-3,-1.828864915E-3,9.874676692E-3
2.223491708E0,-7.308159489E-3,-5.366273224E-3,-5.092686042E-4,9.081048285E-3
2.233531708E0,-9.202941321E-3,-6.320651621E-3,1.925058197E-3,1.132919304E-2
2.243570708E0,-5.737369414E-3,-7.027454674E-3,-6.057438441E-4,9.092274336E-3
2.253609708E0,-5.936747417E-3,-4.472161643E-3,2.006759401E-3,7.698849456E-3
2.263648708E0,-6.178562529E-3,-5.512658507E-3,1.466670539E-3,8.409230715E-3
2.273687708E0,-5.365777295E-3,-7.747286931E-3,1.300395932E-3,9.513309117E-3
2.283726708E0,-4.925556947E-3,-5.999187939E-3,1.247399021E-3,7.861766435E-3
2.293765708E0,-4.569109529E-3,-6.404059939E-3,2.863002475E-3,8.371710026E-3
2.303804292E0,-2.659889171E-3,-7.653082721E-3,3.223860636E-3,8.719974939E-3
2.313844292E0,-3.217613557E-3,-8.369570598E-3,1.016966999E-3,9.024243507E-3
2.323883292E0,-3.023735480E-3,-8.297398686E-3,4.540328868E-3,9.929974191E-3
2.333922292E0,-1.395698637E-3,-8.237349801E-3,4.608876072E-3,9.541679363E-3
2.343961292E0,3.534654388E-4,-7.324418984E-3,3.623240627E-3,8.179237368E-3
2.354000292E0,7.976227207E-4,-6.885092705E-3,4.647028632E-3,8.344793507E-3
2.364039292E0,8.138680132E-4,-8.983930573E-3,3.543414641E-3,9.691706609E-3
2.374078292E0,1.842728583E-3,-7.007845677E-3,3.343526740E-3,7.980270718E-3
2.384117292E0,4.395368509E-3,-7.121828385E-3,3.964842297E-3,9.260652154E-3
2.394157292E0,3.076017369E-3,-7.444277406E-3,4.284237511E-3,9.123258190E-3
2.404196292E0,3.676027525E-3,-8.350284770E-3,6.042722613E-3,1.094325960E-2
2.414235292E0,3.913625609E-3,-7.520564832E-3,6.239900365E-3,1.052671446E-2
2.424274292E0,5.995418411E-3,-7.316832431E-3,5.353334360E-3,1.086918891E-2
2.434313292E0,3.147334559E-3,-8.399385959E-3,6.649196148E-3,1.116544709E-2
2.444352292E0,6.522092037E-3,-7.231855765E-3,5.272075534E-3,1.107394251E-2
2.454391292E0,6.358849816E-3,-6.594057195E-3,5.558190402E-3,1.071494479E-2
2.464430292E0,5.991067272E-3,-6.830279715E-3,2.363195643E-3,9.387774054E-3
2.474470292E0,5.756140687E-3,-7.231244817E-3,3.382907715E-3,9.842160424E-3
2.484509292E0,7.008891553E-3,-6.869054399E-3,2.608726732E-3,1.015450266E-2
2.494548292E0,6.370923948E-3,-6.395645440E-3,1.670182683E-3,9.180548063E-3
2.504587292E0,6.525653880E-3,-5.479251966E-3,-2.044164576E-4,8.523388220E-3
2.514626292E0,5.695153493E-3,-5.438388325E-3,-1.802266110E-3,8.078304526E-3
2.524665292E0,4.844273441E-3,-6.663975306E-3,-2.425445709E-3,8.588267516E-3
2.534704292E0,5.299835466E-3,-6.139024161E-3,-2.935210709E-3,8.625041189E-3
2.544744292E0,4.825526383E-3,-5.817847326E-3,-3.941619303E-3,8.524635776E-3
2.554783292E0,5.839010701E-3,-6.030013785E-3,-2.624545479E-3,8.794506875E-3
2.564822292E0,4.567084834E-3,-4.169796593E-3,-3.775297431E-3,7.245573698E-3
2.574861292E0,4.295627587E-3,-6.526462734E-3,-3.816161770E-3,8.695413897E-3
2.584900292E0,2.417566255E-3,-5.284897052E-3,-4.643339664E-3,7.438774541E-3
2.594939292E0,4.662540741E-3,-3.783191554E-3,-5.859361496E-3,8.389513790E-3
2.604978292E0,4.875061102E-3,-5.188808776E-3,-4.607676063E-3,8.480603514E-3
2.615017292E0,3.148210235E-3,-4.390756600E-3,-4.850753583E-3,7.260838899E-3
2.625057292E0,4.486448597E-3,-4.030963406E-3,-4.961008672E-3,7.809513047E-3
2.635096292E0,4.926970229E-3,-3.732531331E-3,-4.877905827E-3,7.874058104E-3
2.645135292E0,5.588766187E-3,-3.235852346E-3,-3.667499172E-3,7.426681498E-3
2.655174292E0,6.294259802E-3,-3.843911923E-3,-4.799157381E-3,8.799163420E-3
2.665213292E0,6.030074321E-3,-5.521170795E-3,-4.124045838E-3,9.157121673E-3
2.675252292E0,6.032459438E-3,-3.492610529E-3,-5.019493867E-3,8.589773795E-3
2.685291292E0,6.594653241E-3,-3.096864559E-3,-4.504971206E-3,8.565908419E-3
2.695330292E0,7.633169647E-3,-3.707973287E-3,-4.846248776E-3,9.772434290E-3
2.705370292E0,8.377790451E-3,-3.575348295E-3,-4.893652629E-3,1.034013174E-2
2.715409292E0,8.392622694E-3,-3.503995948E-3,-7.311385125E-3,1.166920973E-2
2.725448292E0,9.222730063E-3,-4.049943760E-3,-3.752336837E-3,1.074899186E-2
2.735487292E0,8.679492399E-3,-3.592034802E-3,-4.714433569E-3,1.051009925E-2
2.745526292E0,1.045262534E-2,-3.237567842E-3,-4.502712283E-3,1.183273595E-2
2.755565292E0,9.281715378E-3,-1.544043422E-3,-4.406722263E-3,1.039006793E-2
2.765604292E0,1.135791559E-2,-2.732878551E-3,-5.480508786E-3,1.290375326E-2
2.775643292E0,1.144477818E-2,-2.886665054E-3,-3.806608263E-3,1.240185668E-2
2.785683292E0,1.096274611E-2,-2.512756735E-3,-2.183943987E-3,1.145710958E-2
2.795722292E0,1.167222485E-2,-2.273385413E-3,-1.095950836E-3,1.194195220E-2
2.805761292E0,1.297397818E-2,-7.559163496E-4,-9.510749951E-4,1.303073532E-2
2.815800292E0,1.146188192E-2,-3.978591412E-4,8.842130192E-4,1.150281973E-2
2.825839292E0,1.171062142E-2,1.608720049E-4,1.118571497E-3,1.176502172E-2
2.835878292E0,1.200471446E-2,-6.598783657E-4,2.556263469E-3,1.229158621E-2
2.845917292E0,1.198181137E-2,-2.515302971E-3,1.748792827E-3,1.236724825E-2
2.855956292E0,1.190359425E-2,2.765096724E-4,3.425101284E-3,1.238964618E-2
2.865996292E0,1.123247854E-2,1.236578915E-3,2.962244209E-3,1.168214845E-2
2.876035292E0,1.182967424E-2,1.615992747E-3,4.098741338E-3,1.262348232E-2
2.886074292E0,1.196443010E-2,6.812233478E-4,2.738398500E-3,1.229270024E-2
2.896113292E0,1.212775242E-2,3.084792290E-3,2.923779655E-3,1.285094586E-2
2.906152292E0,1.112400740E-2,2.974271309E-3,3.804220818E-3,1.212690919E-2
2.916191292E0,9.790098295E-3,1.599598676E-3,4.194928333E-3,1.077043009E-2
2.926230292E0,1.049903221E-2,3.843578044E-3,2.549094614E-3,1.146737341E-2
2.936269292E0,8.678704500E-3,3.274363466E-3,3.995260689E-3,1.009967702E-2
2.946309292E0,9.823863395E-3,4.083698150E-3,2.972872462E-3,1.104639549E-2
2.956348292E0,6.566505414E-3,2.523771487E-3,2.717907075E-3,7.541580387E-3
2.966387292E0,6.236007437E-3,3.316062037E-3,1.725346781E-3,7.270548652E-3
2.976426292E0,8.804995567E-3,3.667543177E-3,2.644701861E-3,9.898144665E-3
2.986465292E0,6.943446118E-3,4.562897608E-3,2.541104797E-3,8.688422882E-3
2.996504292E0,7.032501511E-3,3.665888216E-3,9.379172698E-4,7.985893984E-3
3.006543292E0,7.019984536E-3,3.008886240E-3,1.504371408E-3,7.784389034E-3
3.016583292E0,7.429785095E-3,4.682069644E-3,1.920692623E-3,8.989579682E-3
3.026622292E0,4.875280894E-3,3.532649484E-3,1.444519497E-3,6.191495195E-3
3.036661292E0,6.379573606E-3,2.690676134E-3,1.368399709E-3,7.057706087E-3
3.046700292E0,5.609387532E-3,4.654757213E-3,-3.328274470E-4,7.296764167E-3
3.056739292E0,4.760036711E-3,4.886917770E-3,9.830165654E-4,6.892476793E-3
3.066778292E0,4.572816659E-3,3.500742372E-3,-6.963729393E-4,5.800929634E-3
3.076817292E0,5.819836631E-3,1.635346096E-3,-1.573930262E-3,6.246768103E-3
3.086856292E0,6.741822697E-3,4.022071138E-3,-2.515623812E-3,8.243639529E-3
3.096896292E0,5.821978673E-3,3.716323990E-3,-2.522718161E-3,7.353271829E-3
3.106935292E0,6.198549643E-3,3.864928149E-3,-1.855063485E-3,7.536640353E-3
3.116974292E0,5.351339467E-3,5.941032432E-3,-2.931979019E-3,8.516407777E-3
3.127013292E0,5.846154410E-3,4.429688677E-3,-5.245999433E-3,9.017769858E-3
3.137052292E0,5.031025037E-3,4.767174833E-3,-3.648967715E-3,7.832760318E-3
3.147091292E0,5.629970226E-3,5.499810446E-3,-4.038588144E-3,8.846167186E-3
3.157130292E0,4.277529195E-3,5.372509826E-3,-4.407290835E-3,8.159983477E-3
3.167169292E0,5.748925265E-3,4.790609237E-3,-3.484239103E-3,8.254695675E-3
3.177209292E0,5.367213394E-3,5.883017555E-3,-5.411684513E-3,9.628250331E-3
3.187248292E0,5.258822814E-3,4.608162213E-3,-4.943500273E-3,8.563210339E-3
3.197287292E0,5.627627950E-3,5.638957024E-3,-5.018432625E-3,9.415556206E-3
3.207326292E0,5.194065161E-3,4.244792275E-3,-4.536933266E-3,8.098168794E-3
3.217365292E0,4.844310228E-3,5.271922797E-3,-5.433208309E-3,8.987784159E-3
3.227404292E0,5.142850801E-3,6.157157943E-3,-4.343708977E-3,9.122900634E-3
3.237443292E0,4.644963890E-3,4.491515923E-3,-3.668112680E-3,7.429970085E-3
3.247482292E0,3.414849751E-3,4.914159421E-3,-3.981300630E-3,7.187552875E-3
3.257522292E0,3.078307491E-3,4.440936260E-3,-4.486386664E-3,7.023215586E-3
3.267561292E0,1.873759902E-3,3.646248952E-3,-4.503963515E-3,6.090303353E-3
3.277600292E0,2.204663353E-3,3.648496699E-3,-3.075130982E-3,5.256281882E-3
3.287639292E0,2.685451182E-4,5.146258511E-3,-4.539070651E-3,6.867259680E-3
3.297678292E0,1.422076719E-3,3.677704837E-3,-2.292034682E-3,4.560837428E-3
3.307717667E0,3.632500302E-3,4.650025163E-3,-2.605488757E-3,6.450299537E-3
3.317756667E0,1.476265024E-4,5.243494641E-3,-3.502927953E-3,6.307656766E-3
3.327795667E0,-6.244239630E-4,3.944138531E-3,-3.866183106E-3,5.558192678E-3
3.337835667E0,-2.144417493E-3,3.384992946E-3,-2.836292144E-3,4.909303082E-3
3.347874667E0,9.876303375E-5,3.626808058E-3,-3.947061487E-4,3.649559394E-3
3.357913667E0,-2.484329510E-3,2.546373755E-3,-4.033058882E-3,5.377869128E-3
3.367952667E0,-3.741075052E-3,3.925092053E-3,-6.298054941E-4,5.458813527E-3
3.377991667E0,-4.199856427E-3,2.073682845E-3,-1.459530555E-3,4.906035465E-3
3.388030667E0,-2.776663052E-3,2.845200710E-3,-1.080030110E-3,4.119646808E-3
3.398069667E0,-4.272016697E-3,3.108556848E-3,5.472539924E-4,5.311566555E-3
3.408109667E0,-4.155636765E-3,2.546896227E-3,-2.341174986E-4,4.879631986E-3
3.418148667E0,-5.180941895E-3,4.322661087E-3,1.162537374E-3,6.846827801E-3
3.428187667E0,-5.116493441E-3,2.627026755E-3,2.751722932E-4,5.758080800E-3
3.438226667E0,-5.869357381E-3,3.205167130E-3,1.626820303E-3,6.882513835E-3
3.448265667E0,-5.310892127E-3,2.176121809E-3,3.329911735E-3,6.635464828E-3
3.458304667E0,-5.562954582E-3,2.878515050E-3,2.042320557E-3,6.588124607E-3
3.468343667E0,-5.483858753E-3,1.425760332E-3,3.720378503E-3,6.778400664E-3
3.478382667E0,-5.916923750E-3,1.541967038E-3,4.466581158E-3,7.572185699E-3
3.488422667E0,-6.626389921E-3,2.849845216E-3,4.354728386E-3,8.425812747E-3
3.498461667E0,-7.575332187E-3,1.439619809E-3,4.034155980E-3,8.702446634E-3
3.508500667E0,-6.339891814E-3,2.320327330E-3,3.798998892E-3,7.746646998E-3
3.518539667E0,-5.018384662E-3,2.391029615E-3,4.729611799E-3,7.298659809E-3
3.528578667E0,-6.560887676E-3,2.698358614E-3,5.833225325E-3,9.184383702E-3
3.538617667E0,-6.436055526E-3,4.511168227E-4,4.796964116E-3,8.039725235E-3
3.548656667E0,-6.766553968E-3,1.131820958E-3,4.367129877E-3,8.132594583E-3
3.558695667E0,-6.470339373E-3,1.370490063E-3,3.555688076E-3,7.509091310E-3
3.568735667E0,-6.391776726E-3,5.087815225E-6,2.370315138E-3,6.817127654E-3
3.578774667E0,-6.943629123E-3,-9.492514655E-4,2.995521761E-3,7.621562462E-3
3.588813667E0,-6.701281294E-3,-8.110338822E-4,4.424041603E-3,8.070755296E-3
3.598852667E0,-6.136044394E-3,-3.144247457E-4,3.471822012E-3,7.057156071E-3
3.608891667E0,-6.244435441E-3,-1.777298748E-3,2.735724207E-3,7.045278685E-3
3.618930667E0,-6.933452561E-3,-1.393103041E-3,2.078258898E-3,7.371069159E-3
3.628969667E0,-6.634113379E-3,-1.959291287E-3,6.433473900E-4,6.947242513E-3
3.639008667E0,-6.506397389E-3,-1.740557142E-3,9.550773539E-4,6.802567081E-3
3.649048667E0,-7.688041776E-3,-1.512857154E-3,-8.888193406E-5,7.835982588E-3
3.659087667E0,-8.272812702E-3,-4.410295747E-3,1.484976616E-3,9.491854093E-3
3.669126667E0,-8.621687070E-3,-2.607336268E-3,-7.803081535E-4,9.041049229E-3
3.679165667E0,-7.770657539E-3,-4.535110667E-3,-8.896256331E-4,9.041116144E-3
3.689204667E0,-9.704379365E-3,-4.419528879E-3,-3.288867418E-3,1.115902609E-2
3.699243667E0,-1.121374220E-2,-4.947438836E-3,-2.104163636E-3,1.243594265E-2
3.709282667E0,-1.048137341E-2,-3.976450302E-3,-2.523611765E-3,1.149086428E-2
3.719321667E0,-1.079093385E-2,-3.231808543E-3,-4.344183486E-3,1.207314251E-2
3.729361667E0,-1.085538231E-2,-3.387602977E-3,-5.223559216E-3,1.251402213E-2
3.739400667E0,-1.212316565E-2,-2.615729347E-3,-5.032740068E-3,1.338438112E-2
3.749439667E0,-1.273968723E-2,-4.433603026E-3,-6.060454063E-3,1.478802116E-2
3.759478667E0,-1.027426030E-2,-4.621503875E-3,-5.104599055E-3,1.236833272E-2
3.769517667E0,-1.081541460E-2,-3.297646530E-3,-6.016199477E-3,1.280790076E-2
3.779556667E0,-1.205249876E-2,-4.412041977E-3,-5.396585912E-3,1.392307366E-2
3.789595667E0,-1.203199290E-2,-4.743338563E-3,-5.309500732E-3,1.398066207E-2
3.799635667E0,-1.090367045E-2,-6.125867367E-3,-5.642591510E-3,1.372060929E-2
3.809674667E0,-1.131033525E-2,-3.932754509E-3,-4.408216104E-3,1.276019634E-2
3.819713667E0,-1.428256091E-2,-3.700643778E-3,-4.276702646E-3,1.536152649E-2
3.829752667E0,-1.236455236E-2,-3.901712596E-3,-1.744302921E-3,1.308235869E-2
3.839791667E0,-1.317879558E-2,-4.807916470E-3,-2.453097841E-3,1.424129217E-2
3.849830667E0,-1.252099499E-2,-5.532828160E-3,2.630520612E-5,1.368898079E-2
3.859869667E0,-1.230113488E-2,-5.556441844E-3,-3.858131822E-4,1.350336317E-2
3.869908667E0,-1.119805314E-2,-6.724238396E-3,-7.922116201E-4,1.308584637E-2
3.879948667E0,-1.258399710E-2,-6.466602907E-3,3.726440482E-4,1.415319044E-2
3.889987667E0,-1.129449438E-2,-5.914796144E-3,1.080778427E-3,1.279525298E-2
3.900026667E0,-1.217361633E-2,-7.095877081E-3,4.748161882E-4,1.409871826E-2
3.910065667E0,-1.072831824E-2,-7.695354521E-3,8.657681756E-4,1.323120736E-2
3.920104667E0,-9.882614017E-3,-6.478203461E-3,1.690422650E-3,1.193694721E-2
3.930143667E0,-9.815502912E-3,-6.337855011E-3,8.936049417E-4,1.171797906E-2
3.940182667E0,-1.068090182E-2,-7.547314279E-3,2.770820633E-3,1.336865975E-2
3.950221667E0,-1.060899720E-2,-6.141431630E-3,2.181196585E-3,1.245092858E-2
3.960261667E0,-9.039075114E-3,-5.190918222E-3,3.000291530E-3,1.084676266E-2
3.970300667E0,-9.017237462E-3,-6.621035747E-3,2.369122580E-3,1.143509631E-2
3.980339667E0,-8.437003940E-3,-7.219767198E-3,9.831916541E-4,1.114785808E-2
3.990378667E0,-7.635658607E-3,-7.886355743E-3,2.594404388E-3,1.127957550E-2
4.000417667E0,-6.698341575E-3,-5.809284747E-3,4.394572228E-3,9.895849341E-3
4.010456667E0,-8.318874985E-3,-6.965629756E-3,4.828400910E-3,1.187590562E-2
4.020495667E0,-7.573129144E-3,-8.011607453E-3,4.189712927E-3,1.179372008E-2
4.030534667E0,-6.052730139E-3,-7.762335241E-3,5.767636001E-3,1.140855011E-2
4.040574667E0,-8.549585938E-3,-6.382949650E-3,4.800855182E-3,1.169981523E-2
4.050613667E0,-7.716549560E-3,-6.332349032E-3,5.043203011E-3,1.118381321E-2
4.060652667E0,-5.919089541E-3,-6.970454007E-3,3.302769270E-3,9.722712323E-3
4.070691667E0,-7.409128360E-3,-6.678304635E-3,3.559497651E-3,1.059079598E-2
4.080730667E0,-7.436998654E-3,-7.187509909E-3,3.118154127E-3,1.080241329E-2
4.090769667E0,-6.426329259E-3,-4.569889978E-3,3.298716620E-3,8.547697555E-3
4.100808667E0,-7.919318974E-3,-6.628704257E-3,2.645260654E-3,1.066080377E-2
4.110847667E0,-7.034084760E-3,-5.507246591E-3,7.163328119E-4,8.962212122E-3
4.120887667E0,-7.322517689E-3,-5.781787448E-3,9.308890440E-4,9.376293821E-3
4.130926667E0,-8.758493699E-3,-5.433179438E-3,1.001729164E-3,1.035539048E-2
4.140965667E0,-9.720276110E-3,-5.310069770E-3,5.853488110E-4,1.109158428E-2
4.151004667E0,-6.454176269E-3,-3.166757524E-3,2.268874086E-4,7.192789614E-3
4.161043667E0,-8.078322746E-3,-3.274687566E-3,2.442232799E-3,9.052479113E-3
4.171082667E0,-7.900689729E-3,-5.310674198E-3,-4.203987774E-4,9.528950297E-3
4.181121667E0,-8.627478033E-3,-3.931391984E-3,-3.770824987E-4,9.488488360E-3
4.191160667E0,-6.141151302E-3,-3.646700643E-3,-1.975854393E-4,7.145012589E-3
4.201200667E0,-6.322361063E-3,-4.542767070E-3,2.279831097E-5,7.785210455E-3
4.211239667E0,-5.705572665E-3,-4.212002270E-3,-1.478159335E-3,7.244272053E-3
4.221278667E0,-5.980689079E-3,-5.096939392E-3,-1.636178466E-3,8.026488211E-3
4.231317667E0,-6.247271784E-3,-4.840211011E-3,-8.534754161E-4,7.948865810E-3
4.241356667E0,-4.663245752E-3,-4.024142399E-3,-8.286244702E-4,6.214998110E-3
4.251395667E0,-4.805724602E-3,-3.574335016E-3,-8.579192217E-4,6.050362398E-3
4.261434667E0,-3.547417233E-3,-1.365682110E-3,-1.151147997E-3,3.971699682E-3
4.271473667E0,-1.829411951E-3,-6.170291454E-3,-2.734930022E-3,6.992788209E-3
4.281513667E0,-2.745295875E-3,-2.338458784E-3,-4.173645284E-4,3.630321208E-3
4.291552667E0,-2.011328936E-3,-5.877000280E-3,1.022606622E-3,6.295260176E-3
4.301591208E0,-3.702766262E-4,-1.020653266E-2,-5.805222318E-4,1.022973215E-2
4.311630208E0,4.065674730E-4,-3.901764750E-3,-1.576278126E-3,4.227732017E-3
4.321669208E0,1.128607546E-3,-3.395681269E-3,1.474566758E-3,3.870239450E-3
4.331708208E0,4.068204667E-3,-5.527009256E-3,-1.051974250E-3,6.942965530E-3
4.341747208E0,6.055491045E-3,-5.642699078E-3,5.334173329E-4,8.294188250E-3
4.351786208E0,6.527668796E-3,-4.240810871E-3,1.491622534E-3,7.925898974E-3
4.361826208E0,7.382913493E-3,-6.305067800E-3,7.982047275E-3,1.256878555E-2
4.371865208E0,-4.378670827E-3,-1.016984694E-2,2.137614973E-2,2.407360219E-2
4.381904208E0,7.135889027E-3,-2.516431548E-2,4.690720513E-2,5.370707197E-2
4.391943208E0,2.025568672E-2,2.418858558E-2,7.157313079E-2,7.821824319E-2
4.401982208E0,3.853407130E-2,-1.164386608E-2,9.806529433E-2,1.060059254E-1
4.412021208E0,5.431782827E-2,-1.073812507E-2,1.185588539E-1,1.308508144E-1
4.422060208E0,6.816450506E-2,-6.022118032E-5,1.239254326E-1,1.414352015E-1
4.432100208E0,8.242466301E-2,-1.689619385E-2,1.010984108E-1,1.315302060E-1
4.442139208E0,9.345336258E-2,-9.646032937E-3,6.492904574E-2,1.142031432E-1
4.452178208E0,1.040620655E-1,-1.886669546E-2,2.450093068E-2,1.085594827E-1
4.462217208E0,1.162267551E-1,-1.401334070E-2,-1.040719450E-2,1.175301749E-1
4.472256208E0,1.320531368E-1,-1.396194287E-2,-3.913631290E-2,1.384363311E-1
4.482295208E0,1.574259400E-1,-1.519603096E-2,-5.642277747E-2,1.679207425E-1
4.492334208E0,1.855611801E-1,-1.831991971E-2,-5.874824524E-2,1.954991748E-1
4.502373208E0,2.138171494E-1,-1.668610983E-2,-5.412682518E-2,2.211920271E-1
4.512413208E0,2.429071218E-1,-2.108565159E-2,-4.057133570E-2,2.471730321E-1
4.522452208E0,2.622983754E-1,-3.190363944E-2,-2.469481900E-2,2.653829573E-1
4.532491208E0,2.779369950E-1,-3.561901301E-2,-9.438634850E-3,2.803689981E-1
4.542530208E0,2.915015519E-1,-4.465406388E-2,9.133008309E-3,2.950433053E-1
4.552569208E0,3.073500097E-1,-4.708020389E-2,2.362486534E-2,3.118312177E-1
4.562608208E0,3.278319538E-1,-5.646709353E-2,4.432645068E-2,3.355996972E-1
4.572647208E0,3.564108610E-1,-6.114599854E-2,6.056107953E-2,3.666540322E-1
4.582686208E0,3.829178810E-1,-6.889488548E-2,6.940180808E-2,3.952078185E-1
4.592726208E0,4.090035558E-1,-7.572855800E-2,6.899088621E-2,4.216378369E-1
4.602765208E0,4.399229586E-1,-7.627880573E-2,6.853924692E-2,4.517170509E-1
4.612804208E0,4.678645730E-1,-8.260062337E-2,6.906948239E-2,4.800944855E-1
4.622843208E0,4.946396649E-1,-8.997572958E-2,6.337366253E-2,5.067348923E-1
4.632882208E0,5.142562389E-1,-7.997689396E-2,5.926121026E-2,5.238011778E-1
4.642921208E0,5.316451192E-1,-8.166280389E-2,5.773878843E-2,5.409705297E-1
4.652960208E0,5.460573435E-1,-8.903896809E-2,6.173512340E-2,5.567026007E-1
4.662999208E0,5.578190088E-1,-1.056936830E-1,6.432479620E-2,5.713763039E-1
4.673039208E0,5.669882298E-1,-1.021791101E-1,7.463069260E-2,5.809354211E-1
4.683078208E0,5.779655576E-1,-9.851857275E-2,8.336065710E-2,5.921985259E-1
4.693117208E0,5.897689462E-1,-9.743253887E-2,9.853454679E-2,6.058296513E-1
4.703156208E0,6.005070806E-1,-1.032641083E-1,1.142213419E-1,6.199344682E-1
4.713195208E0,6.188400388E-1,-1.080444902E-1,1.296058893E-1,6.414314398E-1
4.723234208E0,6.373071074E-1,-1.094947681E-1,1.436160654E-1,6.624009569E-1
4.733273208E0,6.534035206E-1,-1.166767851E-1,1.544335634E-1,6.814685307E-1
4.743312208E0,6.638145447E-1,-1.208423004E-1,1.599079221E-1,6.934141294E-1
4.753352208E0,6.670761704E-1,-1.278717071E-1,1.521533281E-1,6.960549015E-1
4.763391208E0,6.675553918E-1,-1.190983802E-1,1.281256378E-1,6.900947792E-1
4.773430208E0,6.590615511E-1,-1.094209775E-1,9.450749308E-2,6.747345735E-1
4.783469208E0,6.367654204E-1,-1.030325964E-1,5.823982134E-2,6.476710534E-1
4.793508208E0,6.061087251E-1,-1.092923582E-1,2.916715667E-2,6.165738635E-1
4.803547208E0,5.820179582E-1,-1.087119952E-1,3.307030071E-3,5.920930146E-1
4.813586208E0,5.557985902E-1,-9.606117755E-2,-1.661607809E-2,5.642835429E-1
4.823625208E0,5.410336256E-1,-1.003794298E-1,-2.909418009E-2,5.510352850E-1
4.833665208E0,5.261968970E-1,-1.035405993E-1,-3.970261663E-2,5.377547098E-1
4.843704208E0,5.116244555E-1,-9.311332554E-2,-3.839541227E-2,5.214440358E-1
4.853743208E0,4.990524352E-1,-1.004758999E-1,-3.540201485E-2,5.102960338E-1
4.863782208E0,4.900383055E-1,-9.943999350E-2,-3.167914599E-2,5.010283639E-1
4.873821208E0,4.724361300E-1,-9.093785286E-2,-2.284091525E-2,4.816505969E-1
4.883860208E0,4.572658539E-1,-9.004027396E-2,-1.331598219E-2,4.662366646E-1
4.893899208E0,4.409497380E-1,-8.457360417E-2,-1.307656337E-2,4.491774287E-1
4.903938208E0,4.271032512E-1,-9.002326429E-2,-2.651244216E-2,4.372919904E-1
4.913978208E0,4.167643189E-1,-8.211821318E-2,-4.255532473E-2,4.269037996E-1
4.924017208E0,4.007993639E-1,-8.409070969E-2,-7.272036374E-2,4.159322407E-1
4.934056208E0,3.842680454E-1,-7.068968564E-2,-1.018979624E-1,4.037847906E-1
4.944095208E0,3.622330129E-1,-6.676453352E-2,-1.342369318E-1,3.920329226E-1
4.954134208E0,3.291317821E-1,-5.764799565E-2,-1.660872698E-1,3.731434075E-1
4.964173208E0,2.957510650E-1,-5.674480647E-2,-1.918746084E-1,3.570777659E-1
4.974212208E0,2.646424174E-1,-5.212555081E-2,-2.180939615E-1,3.468683586E-1
4.984252208E0,2.356551141E-1,-4.430722445E-2,-2.366779000E-1,3.369167423E-1
4.994291208E0,2.140717953E-1,-4.593601078E-2,-2.495782524E-1,3.320032451E-1
5.004330208E0,1.912160516E-1,-4.054137319E-2,-2.514395118E-1,3.184792135E-1
5.014369208E0,1.706519127E-1,-3.557377681E-2,-2.499497533E-1,3.047334049E-1
5.024408208E0,1.537900567E-1,-3.586278111E-2,-2.426188886E-1,2.894847936E-1
5.034447208E0,1.400941908E-1,-2.875373885E-2,-2.327366918E-1,2.731657510E-1
5.044486208E0,1.247284487E-1,-2.239348926E-2,-2.143833786E-1,2.490359157E-1
5.054525208E0,1.100736037E-1,-5.880293436E-3,-1.910548955E-1,2.205736820E-1
5.064565208E0,8.292807639E-2,-1.305186842E-2,-1.742862761E-1,1.934505703E-1
5.074604208E0,5.868052691E-2,-2.557682805E-3,-1.555152535E-1,1.662376012E-1
5.084643208E0,4.277660325E-2,7.618498057E-4,-1.482514143E-1,1.543013287E-1
5.094682208E0,2.657526545E-2,9.173177183E-3,-1.471917331E-1,1.498525883E-1
5.104721208E0,1.037804410E-2,2.174852416E-2,-1.454705745E-1,1.474530100E-1
5.114760208E0,-4.490118474E-3,2.195145562E-2,-1.428910494E-1,1.446370615E-1
5.124799208E0,-2.826191112E-2,2.506966516E-2,-1.410996765E-1,1.460696493E-1
5.134838208E0,-5.811700970E-2,3.369856998E-2,-1.383358389E-1,1.537855155E-1
5.144878208E0,-9.954281896E-2,3.427216411E-2,-1.391707659E-1,1.745046020E-1
5.154917208E0,-1.363178641E-1,4.047280177E-2,-1.386706233E-1,1.986206170E-1
5.164956208E0,-1.649238616E-1,4.494080693E-2,-1.342896074E-1,2.173781381E-1
5.174995208E0,-1.903554648E-1,5.145730078E-2,-1.248652190E-1,2.333974715E-1
5.185034208E0,-2.149218172E-1,5.910253897E-2,-1.137558520E-1,2.502496583E-1
5.195073208E0,-2.330930978E-1,6.235452741E-2,-9.264098108E-2,2.584624358E-1
5.205112208E0,-2.482472509E-1,6.482689828E-2,-7.208961993E-2,2.665072938E-1
5.215152208E0,-2.604546547E-1,7.252743095E-2,-4.441378266E-2,2.739880280E-1
5.225191208E0,-2.730195224E-1,7.526516914E-2,-1.495942939E-2,2.835988185E-1
5.235230208E0,-2.847659290E-1,8.217154443E-2,1.804938726E-2,2.969336246E-1
5.245269208E0,-2.959852517E-1,8.410962671E-2,4.639919847E-2,3.111825576E-1
5.255308208E0,-3.117026985E-1,8.073034137E-2,7.186780870E-2,3.299105063E-1
5.265347208E0,-3.291397691E-1,8.236348629E-2,9.856092185E-2,3.533142890E-1
5.275386208E0,-3.475808203E-1,8.333047479E-2,1.232769191E-1,3.780920437E-1
5.285425208E0,-3.657312095E-1,8.458893746E-2,1.458480507E-1,4.027235526E-1
5.295465208E0,-3.823519945E-1,8.427814394E-2,1.591092646E-1,4.226246696E-1
5.305504042E0,-3.977079391E-1,8.689568192E-2,1.702699065E-1,4.412644394E-1
5.315543042E0,-4.151660204E-1,9.600315988E-2,1.758276522E-1,4.609715767E-1
5.325582042E0,-4.374085069E-1,1.022877991E-1,1.797368973E-1,4.838329753E-1
5.335621042E0,-4.621929526E-1,1.068732291E-1,1.763948947E-1,5.061218939E-1
5.345660042E0,-4.845787585E-1,1.239848062E-1,1.713454276E-1,5.287230475E-1
5.355699042E0,-5.058672428E-1,1.234023795E-1,1.593172550E-1,5.445289729E-1
5.365738042E0,-5.248228312E-1,1.174583882E-1,1.477784961E-1,5.577400479E-1
5.375778042E0,-5.421578884E-1,1.322671622E-1,1.350709647E-1,5.741723989E-1
5.385817042E0,-5.556806326E-1,1.460820884E-1,1.238467097E-1,5.877575601E-1
5.395856042E0,-5.731453300E-1,1.526659578E-1,1.187206581E-1,6.048942541E-1
5.405895042E0,-5.851450562E-1,1.443766803E-1,1.100529507E-1,6.126589709E-1
5.415934042E0,-5.985357165E-1,1.319141537E-1,1.028629467E-1,6.214717481E-1
5.425973042E0,-6.118812561E-1,1.255307496E-1,9.540507197E-2,6.318692653E-1
5.436012042E0,-6.292248368E-1,1.373173594E-1,8.963053674E-2,6.502411749E-1
5.446051042E0,-6.466799974E-1,1.558732986E-1,9.155634791E-2,6.714715699E-1
5.456091042E0,-6.608504057E-1,1.354923993E-1,9.680916369E-2,6.815082268E-1
5.466130042E0,-6.726709008E-1,1.156518087E-1,1.020903736E-1,6.901332669E-1
5.476169042E0,-6.818401814E-1,1.176371947E-1,1.075639576E-1,7.002246407E-1
5.486208042E0,-6.871451139E-1,1.329916865E-1,1.116890460E-1,7.087521706E-1
5.496247042E0,-6.920687556E-1,1.475200206E-1,1.185882315E-1,7.174848344E-1
5.506286042E0,-7.003584504E-1,1.444793344E-1,1.213397980E-1,7.253272253E-1
5.516325042E0,-7.081042528E-1,1.229263619E-1,1.181855500E-1,7.283476831E-1
5.526365042E0,-7.112321854E-1,1.267714798E-1,1.040736958E-1,7.298996943E-1
5.536404042E0,-7.135944366E-1,1.495921016E-1,9.144072235E-2,7.348171355E-1
5.546443042E0,-7.152130008E-1,1.317594647E-1,7.158574462E-2,7.307631024E-1
5.556482042E0,-7.197291851E-1,1.211163998E-1,5.005249381E-2,7.315630761E-1
5.566521042E0,-7.283900380E-1,1.482602656E-1,3.104549833E-2,7.439737743E-1
5.576560042E0,-7.302857041E-1,1.313747615E-1,2.184288111E-3,7.420116635E-1
5.586599042E0,-7.288895249E-1,1.173809841E-1,-2.400270104E-2,7.386706740E-1
5.596638042E0,-7.306733131E-1,1.422399879E-1,-5.026226863E-2,7.460844458E-1
5.606678042E0,-7.319405079E-1,1.440499276E-1,-7.696854323E-2,7.499409613E-1
5.616717042E0,-7.312246561E-1,1.234389171E-1,-1.007963791E-1,7.483893198E-1
5.626756042E0,-7.258902788E-1,1.160409525E-1,-1.237995252E-1,7.454585984E-1
5.636795042E0,-7.258679271E-1,1.107031852E-1,-1.436456740E-1,7.481801404E-1
5.646834042E0,-7.284656763E-1,1.109443456E-1,-1.610426903E-1,7.542583360E-1
5.656873042E0,-7.235673070E-1,1.219882146E-1,-1.708772033E-1,7.534120990E-1
5.666912042E0,-7.145925164E-1,1.240414083E-1,-1.747593582E-1,7.460359031E-1
5.676951042E0,-7.044733167E-1,1.116792783E-1,-1.761684269E-1,7.347041784E-1
5.686991042E0,-6.998291016E-1,1.062892750E-1,-1.706542671E-1,7.281353310E-1
5.697030042E0,-6.988983154E-1,1.078669354E-1,-1.603060216E-1,7.251152678E-1
5.707069042E0,-6.980898380E-1,1.036559567E-1,-1.494855434E-1,7.214013495E-1
5.717108042E0,-7.004520297E-1,9.348667413E-2,-1.379204988E-1,7.199964362E-1
5.727147042E0,-7.017649412E-1,8.554597944E-2,-1.275964677E-1,7.183822144E-1
5.737186042E0,-7.002834082E-1,7.561398298E-2,-1.204527915E-1,7.145790377E-1
5.747225042E0,-6.969013214E-1,8.002765477E-2,-1.150880605E-1,7.108594369E-1
5.757265042E0,-6.879389882E-1,8.312357962E-2,-1.140813902E-1,7.022707061E-1
5.767304042E0,-6.729195118E-1,6.653913856E-2,-1.142394766E-1,6.857833363E-1
5.777343042E0,-6.584822536E-1,5.816136301E-2,-1.149276346E-1,6.709619837E-1
5.787382042E0,-6.491338611E-1,6.752789766E-2,-1.195046902E-1,6.634878729E-1
5.797421042E0,-6.396905780E-1,5.870617554E-2,-1.243820041E-1,6.543098147E-1
5.807460042E0,-6.339502335E-1,4.332199320E-2,-1.275282204E-1,6.480996379E-1
5.817499042E0,-6.329912543E-1,4.140158743E-2,-1.322124451E-1,6.479754240E-1
5.827538042E0,-6.294355989E-1,4.766030237E-2,-1.335329860E-1,6.452067389E-1
5.837578042E0,-6.235795617E-1,4.831996560E-2,-1.297353208E-1,6.387625085E-1
5.847617042E0,-6.119405031E-1,3.625672683E-2,-1.203795597E-1,6.247215123E-1
5.857656042E0,-6.000555754E-1,1.911875233E-2,-1.112558320E-1,6.105817557E-1
5.867695042E0,-5.832828879E-1,2.254017442E-2,-9.793953598E-2,5.918776390E-1
5.877734042E0,-5.645132065E-1,2.662226744E-2,-7.708938420E-2,5.703741566E-1
5.887773042E0,-5.473119020E-1,2.340763435E-2,-5.176817253E-2,5.502528320E-1
5.897812042E0,-5.312725306E-1,1.646557264E-2,-2.351256460E-2,5.320474203E-1
5.907852042E0,-5.148680210E-1,1.301453728E-2,5.018841475E-3,5.150569347E-1
5.917891042E0,-4.988925159E-1,6.729743443E-3,3.394183517E-2,5.000910717E-1
5.927930042E0,-4.848739803E-1,5.274555646E-3,6.046493724E-2,4.886579646E-1
5.937969042E0,-4.696683884E-1,3.335508052E-3,8.354549110E-2,4.770527955E-1
5.948008042E0,-4.518199265E-1,-3.615955822E-3,1.035200655E-1,4.635415031E-1
5.958047042E0,-4.345850348E-1,-1.036467124E-2,1.183826327E-1,4.505397060E-1
5.968086042E0,-4.193820655E-1,-5.329854786E-3,1.296194196E-1,4.389885171E-1
5.978125042E0,-3.994278014E-1,-1.335901860E-2,1.371835917E-1,4.225403764E-1
5.988165042E0,-3.782721758E-1,-1.700781658E-2,1.421589106E-1,4.044604563E-1
5.998204042E0,-3.589823842E-1,-1.927576587E-2,1.425972581E-1,3.867478317E-1
6.008243042E0,-3.360123336E-1,-2.594304830E-2,1.447005421E-1,3.667636528E-1
6.018282042E0,-3.140026331E-1,-2.778169513E-2,1.405175179E-1,3.451299017E-1
6.028321042E0,-2.909926772E-1,-3.532364964E-2,1.392462999E-1,3.245212326E-1
6.038360042E0,-2.664902806E-1,-4.721306264E-2,1.377986073E-1,3.037014968E-1
6.048399042E0,-2.426178455E-1,-4.313986003E-2,1.360046417E-1,2.814635483E-1
6.058439042E0,-2.189239711E-1,-4.718520120E-2,1.363982558E-1,2.622186731E-1
6.068478042E0,-1.996516287E-1,-4.696422815E-2,1.388748586E-1,2.476946466E-1
6.078517042E0,-1.811772734E-1,-4.819221050E-2,1.409342885E-1,2.345424636E-1
6.088556042E0,-1.627469510E-1,-5.507993326E-2,1.398115456E-1,2.215121608E-1
6.098595042E0,-1.418890804E-1,-5.649221316E-2,1.397532225E-1,2.070141166E-1
6.108634042E0,-1.230006739E-1,-6.140583754E-2,1.390148103E-1,1.955120461E-1
6.118673042E0,-1.025486588E-1,-5.951233208E-2,1.384270489E-1,1.822635262E-1
6.128713042E0,-8.035260439E-2,-7.583384216E-2,1.363167316E-1,1.754695528E-1
6.138752042E0,-5.999673903E-2,-7.765837759E-2,1.305483282E-1,1.633196200E-1
6.148791042E0,-4.213740677E-2,-7.898329198E-2,1.226361319E-1,1.518339301E-1
6.158830042E0,-2.008323558E-2,-8.326272666E-2,1.119294316E-1,1.409404685E-1
6.168869042E0,2.035275102E-3,-8.254015446E-2,9.963969886E-2,1.294028169E-1
6.178908042E0,2.316506207E-2,-8.488586545E-2,8.101754636E-2,1.196079975E-1
6.188947042E0,4.749719799E-2,-8.767575026E-2,5.840248242E-2,1.155589501E-1
6.198986042E0,7.143395394E-2,-9.169632196E-2,3.642288223E-2,1.218098994E-1
6.209026042E0,9.514353424E-2,-9.216661751E-2,1.240134425E-2,1.330442439E-1
6.219065042E0,1.138455793E-1,-9.194610268E-2,-1.238469593E-2,1.468614395E-1
6.229104042E0,1.385633945E-1,-9.213553369E-2,-3.666866571E-2,1.703917895E-1
6.239143042E0,1.595328599E-1,-9.497419000E-2,-5.779764801E-2,1.944515319E-1
6.249182042E0,1.839884222E-1,-9.593277425E-2,-7.457023114E-2,2.204893558E-1
6.259221042E0,2.067355514E-1,-9.527283907E-2,-9.023494273E-2,2.448649566E-1
6.269260042E0,2.336641401E-1,-9.551396966E-2,-1.019224823E-1,2.722315947E-1
6.279300042E0,2.563350797E-1,-9.474058449E-2,-1.132121533E-1,2.958047381E-1
6.289339042E0,2.805230618E-1,-9.326893091E-2,-1.213502958E-1,3.195593465E-1
6.299378042E0,3.040315807E-1,-9.467747808E-2,-1.291850507E-1,3.436390610E-1
6.309417292E0,3.269396424E-1,-9.651839733E-2,-1.329706311E-1,3.659050690E-1
6.319456292E0,3.503733277E-1,-9.266293794E-2,-1.350614727E-1,3.867680057E-1
6.329495292E0,3.672620952E-1,-9.313586354E-2,-1.378356665E-1,4.031803649E-1
6.339534292E0,3.831249475E-1,-9.402509779E-2,-1.395880282E-1,4.184617809E-1
6.349573292E0,3.995670378E-1,-9.224470705E-2,-1.426780075E-1,4.341888040E-1
6.359613292E0,4.140407741E-1,-1.045868620E-1,-1.440007985E-1,4.506710600E-1
6.369652292E0,4.258997440E-1,-9.962387383E-2,-1.422132254E-1,4.599348972E-1
6.379691292E0,4.467365742E-1,-9.591009468E-2,-1.423077732E-1,4.785643272E-1
6.389730292E0,4.657237530E-1,-9.676776081E-2,-1.426260620E-1,4.965932009E-1
6.399769292E0,4.791942835E-1,-8.688423038E-2,-1.408033967E-1,5.069532792E-1
6.409808292E0,4.935393929E-1,-1.063050926E-1,-1.399220526E-1,5.238893833E-1
6.419847292E0,5.055529475E-1,-1.120141149E-1,-1.403673440E-1,5.365015712E-1
6.429887292E0,5.157415867E-1,-9.756582230E-2,-1.371422559E-1,5.425094214E-1
6.439926292E0,5.255409479E-1,-9.163708985E-2,-1.354042888E-1,5.503861968E-1
6.449965292E0,5.345126987E-1,-9.529638290E-2,-1.261620373E-1,5.574065709E-1
6.460004292E0,5.470660329E-1,-9.663622081E-2,-1.196644604E-1,5.682775612E-1
6.470043292E0,5.622683764E-1,-9.429559857E-2,-1.104160026E-1,5.807142848E-1
6.480082292E0,5.748935938E-1,-8.961483091E-2,-1.034166887E-1,5.909555598E-1
6.490121292E0,5.874835849E-1,-9.145845473E-2,-9.195050597E-2,6.016282133E-1
6.500160292E0,5.975974202E-1,-8.773189783E-2,-8.075670898E-2,6.093777224E-1
6.510200292E0,6.082304120E-1,-8.532972634E-2,-6.697485596E-2,6.178276682E-1
6.520239292E0,6.182766557E-1,-8.635078371E-2,-5.204623565E-2,6.264433665E-1
6.530278292E0,6.246685982E-1,-8.765697479E-2,-4.225152731E-2,6.322023365E-1
6.540317292E0,6.358813047E-1,-8.430458605E-2,-2.919751033E-2,6.421096414E-1
6.550356292E0,6.485413909E-1,-8.608800173E-2,-1.721888967E-2,6.544566983E-1
6.560395292E0,6.575873494E-1,-8.325865865E-2,-5.806978792E-3,6.628626157E-1
6.570434292E0,6.662465930E-1,-7.963152975E-2,9.222375229E-3,6.710519767E-1
6.580474292E0,6.772563457E-1,-7.666583359E-2,2.178237401E-2,6.819298202E-1
6.590513292E0,6.863956451E-1,-7.364220172E-2,3.514207527E-2,6.912287038E-1
6.600552292E0,6.962070465E-1,-7.107304782E-2,4.518139362E-2,7.012823882E-1
6.610591292E0,7.052332163E-1,-6.731819361E-2,5.525195971E-2,7.105901826E-1
6.620630292E0,7.165162563E-1,-6.339561939E-2,6.550246477E-2,7.222915776E-1
6.630669292E0,7.254326940E-1,-6.163498014E-2,7.171992958E-2,7.315703743E-1
6.640708292E0,7.322072387E-1,-6.151460856E-2,7.968464494E-2,7.390948045E-1
6.650748292E0,7.393832207E-1,-5.959828198E-2,8.654055744E-2,7.468124064E-1
6.660787292E0,7.476236224E-1,-5.863901228E-2,9.096939117E-2,7.554171329E-1
6.670826292E0,7.540708184E-1,-5.523250252E-2,9.605744481E-2,7.621682631E-1
6.680865292E0,7.593819499E-1,-5.398268253E-2,1.026146859E-1,7.681828230E-1
6.690904292E0,7.632789016E-1,-5.188168585E-2,1.059245020E-1,7.723382621E-1
6.700943292E0,7.622091174E-1,-5.059324950E-2,1.094912738E-1,7.716934330E-1
6.710982292E0,7.606771588E-1,-4.656387120E-2,1.123518348E-1,7.703381523E-1
6.721022292E0,7.593130469E-1,-4.550393671E-2,1.155276522E-1,7.693981738E-1
6.731061292E0,7.544742227E-1,-4.462331533E-2,1.171437949E-1,7.648171426E-1
6.741100292E0,7.503910661E-1,-3.610013425E-2,1.169094369E-1,7.603011168E-1
6.751139292E0,7.465319633E-1,-3.664899617E-2,1.187990680E-1,7.568132793E-1
6.761178292E0,7.403190732E-1,-2.899853140E-2,1.134863272E-1,7.495281125E-1
6.771217292E0,7.336102128E-1,-2.799205482E-2,1.057135016E-1,7.417161478E-1
6.781256292E0,7.254806161E-1,-2.810896933E-2,1.003376469E-1,7.329255637E-1
6.791296292E0,7.190821767E-1,-1.852950826E-2,9.080141783E-2,7.250292525E-1
6.801335292E0,7.121989727E-1,-2.228190191E-2,8.179726452E-2,7.172270577E-1
6.811374292E0,7.072556615E-1,-1.770196483E-2,6.878286600E-2,7.108129240E-1
6.821413292E0,6.991154552E-1,-1.826176234E-2,5.628784001E-2,7.016154449E-1
6.831452292E0,6.908161640E-1,-1.084898226E-2,4.439672083E-2,6.923263260E-1
6.841491292E0,6.796223521E-1,-1.576810703E-2,3.285165131E-2,6.805985643E-1
6.851530292E0,6.669641137E-1,-1.076985523E-2,1.982284710E-2,6.673455357E-1
6.861570292E0,6.544613838E-1,3.529987298E-3,1.183123421E-2,6.545778348E-1
6.871609292E0,6.429175735E-1,-1.359083410E-2,2.778869588E-3,6.430672120E-1
6.881648292E0,6.270968318E-1,-1.765066758E-3,-4.489962012E-3,6.271153894E-1
6.891687292E0,6.123290658E-1,1.499087177E-2,-1.012883522E-2,6.125962817E-1
6.901726292E0,5.986588001E-1,2.847922035E-3,-9.775167331E-3,5.987453745E-1
6.911765292E0,5.833267570E-1,2.838227898E-3,-1.646927558E-2,5.835661042E-1
6.921804292E0,5.665749907E-1,1.832850277E-2,-2.241931111E-2,5.673145333E-1
6.931844292E0,5.494336486E-1,1.770611294E-2,-2.537414618E-2,5.503041776E-1
6.941883292E0,5.315747857E-1,9.743793868E-3,-3.080433048E-2,5.325557258E-1
6.951922292E0,5.088739991E-1,2.477083728E-2,-4.202608019E-2,5.112069373E-1
6.961961292E0,4.922880828E-1,3.357445076E-2,-5.190747231E-2,4.961543973E-1
6.972000292E0,4.735558331E-1,1.641605794E-2,-6.507134438E-2,4.782874595E-1
6.982039292E0,4.532239437E-1,3.991153091E-2,-7.883695513E-2,4.617576626E-1
6.992078292E0,4.323630631E-1,3.253897280E-2,-9.391507506E-2,4.436402196E-1
7.002118292E0,4.143377244E-1,3.084866330E-2,-1.083166525E-1,4.293715025E-1
7.012157292E0,3.931140304E-1,4.248163849E-2,-1.220848113E-1,4.138212557E-1
7.022196292E0,3.761310577E-1,4.043446481E-2,-1.315630078E-1,4.005225881E-1
7.032235292E0,3.564776778E-1,4.192272574E-2,-1.408726275E-1,3.855890907E-1
7.042274292E0,3.398414552E-1,4.789992422E-2,-1.466104090E-1,3.732040052E-1
7.052313292E0,3.224026561E-1,4.609016329E-2,-1.481587142E-1,3.577971218E-1
7.062352292E0,3.052875698E-1,4.693598300E-2,-1.466282010E-1,3.419112693E-1
7.072391292E0,2.880651057E-1,6.364675611E-2,-1.416425258E-1,3.272537544E-1
7.082431292E0,2.736395597E-1,4.206795990E-2,-1.407535672E-1,3.105799230E-1
7.092470292E0,2.548157275E-1,4.903880507E-2,-1.355399191E-1,2.927574577E-1
7.102509292E0,2.354571968E-1,5.989411473E-2,-1.294876188E-1,2.753079003E-1
7.112548292E0,2.211701125E-1,6.249400228E-2,-1.197934598E-1,2.591759865E-1
7.122587292E0,2.054705024E-1,4.078977183E-2,-1.182948947E-1,2.405735126E-1
7.132626292E0,1.916680634E-1,5.866033584E-2,-1.160525456E-1,2.316157915E-1
7.142665292E0,1.734730750E-1,6.529693305E-2,-1.120905578E-1,2.166123043E-1
7.152705292E0,1.613620520E-1,5.185289681E-2,-1.053616554E-1,1.995683170E-1
7.162744292E0,1.439995766E-1,7.065162063E-2,-1.048921421E-1,1.916504397E-1
7.172783292E0,1.256689727E-1,6.415024400E-2,-9.667816758E-2,1.710397983E-1
7.182822292E0,1.072039455E-1,5.318014696E-2,-9.510450810E-2,1.528583705E-1
7.192861292E0,8.547668159E-2,5.699631199E-2,-9.316407889E-2,1.386880971E-1
7.202900292E0,6.194259599E-2,5.966932699E-2,-9.535054117E-2,1.284096549E-1
7.212939292E0,3.832813352E-2,6.491079181E-2,-9.536845982E-2,1.215631517E-1
7.222979292E0,1.596690156E-2,6.530946493E-2,-9.236521274E-2,1.142436024E-1
7.233018292E0,-7.987204008E-3,6.598574668E-2,-8.695873618E-2,1.094519803E-1
7.243057292E0,-2.937371843E-2,7.115015388E-2,-7.618971169E-2,1.083052718E-1
7.253096292E0,-4.910592362E-2,6.854039431E-2,-6.597739458E-2,1.070616364E-1
7.263135292E0,-6.681061536E-2,7.273274660E-2,-5.349116400E-2,1.123165855E-1
7.273174292E0,-8.916697651E-2,7.109518349E-2,-3.956697509E-2,1.207096530E-1
7.283213292E0,-1.082988605E-1,7.179480046E-2,-2.115494385E-2,1.316459958E-1
7.293253292E0,-1.305687428E-1,7.062513381E-2,-6.669479888E-3,1.485953838E-1
7.303292417E0,-1.539587528E-1,6.611879915E-2,7.589350455E-3,1.677277299E-1
7.313331417E0,-1.816115528E-1,6.546780467E-2,2.019750886E-2,1.941049431E-1
7.323370417E0,-2.080982924E-1,6.390745938E-2,2.476003580E-2,2.190938658E-1
7.333409417E0,-2.335815579E-1,6.549794972E-2,3.285754845E-2,2.448059315E-1
7.343448417E0,-2.591305971E-1,6.720104069E-2,3.318378329E-2,2.697513850E-1
7.353487417E0,-2.837329805E-1,6.587740779E-2,3.601514548E-2,2.934984289E-1
7.363527417E0,-3.095408678E-1,6.563053280E-2,3.675444052E-2,3.185495324E-1
7.373566417E0,-3.350826204E-1,6.782792509E-2,3.683418781E-2,3.438571612E-1
7.383605417E0,-3.587796986E-1,6.639408320E-2,3.379711881E-2,3.664332022E-1
7.393644417E0,-3.806489110E-1,6.329084933E-2,3.286070377E-2,3.872714176E-1
7.403683417E0,-4.023528695E-1,7.762984186E-2,3.490414843E-2,4.112572474E-1
7.413722417E0,-4.268727303E-1,5.932735652E-2,3.771551698E-2,4.326228418E-1
7.423761417E0,-4.497705996E-1,6.295218319E-2,4.149321094E-2,4.560463312E-1
7.433801417E0,-4.692359865E-1,6.168034673E-2,4.619595408E-2,4.755217580E-1
7.443840417E0,-4.830367565E-1,6.540185213E-2,5.212388933E-2,4.902232249E-1
7.453879417E0,-5.019010901E-1,6.398106366E-2,6.120692194E-2,5.096514182E-1
7.463918417E0,-5.187996626E-1,5.432470888E-2,7.051093876E-2,5.263801444E-1
7.473957417E0,-5.389749408E-1,5.052959174E-2,7.790921628E-2,5.469159647E-1
7.483996417E0,-5.530588031E-1,4.348153621E-2,8.506539464E-2,5.612493252E-1
7.494035417E0,-5.711597204E-1,4.323265702E-2,9.319932759E-2,5.803262906E-1
7.504075417E0,-5.900161862E-1,4.740503430E-2,9.940635413E-2,6.002065982E-1
7.514114417E0,-6.035033464E-1,3.737632558E-2,1.022925898E-1,6.132512151E-1
7.524153417E0,-6.130105853E-1,3.748418391E-2,1.066963896E-1,6.233547636E-1
7.534192417E0,-6.228798628E-1,4.671942443E-2,1.105181426E-1,6.343313708E-1
7.544231417E0,-6.316994429E-1,5.099087209E-2,1.105037630E-1,6.433158919E-1
7.554270417E0,-6.403497458E-1,4.071377218E-2,1.054900661E-1,6.502565357E-1
7.564309417E0,-6.496418118E-1,4.181578755E-2,1.046929806E-1,6.593509414E-1
7.574349417E0,-6.629063487E-1,3.695010394E-2,9.427935630E-2,6.705958055E-1
7.584388417E0,-6.656259894E-1,3.137078136E-2,8.936689049E-2,6.723306663E-1
7.594427417E0,-6.700428128E-1,4.299107194E-2,8.281010389E-2,6.765080314E-1
7.604466417E0,-6.731882691E-1,2.690983936E-2,7.396947592E-2,6.777743493E-1
7.614505417E0,-6.713676453E-1,2.156689763E-2,5.989520997E-2,6.743790346E-1
7.624544417E0,-6.759208441E-1,3.991581127E-2,5.184980109E-2,6.790807473E-1
7.634584417E0,-6.749891639E-1,2.995416895E-2,4.019141197E-2,6.768478213E-1
7.644623417E0,-6.775929332E-1,8.770852350E-3,2.988204733E-2,6.783082247E-1
7.654662417E0,-6.767498851E-1,7.246710360E-3,2.024255134E-2,6.770913400E-1
7.664701417E0,-6.783685684E-1,1.418371219E-2,8.697746322E-3,6.785725776E-1
7.674740417E0,-6.783665419E-1,1.424428076E-2,1.319841016E-3,6.785173591E-1
7.684779417E0,-6.808643341E-1,1.862118579E-2,-4.284249153E-3,6.811323989E-1
7.694818417E0,-6.861481667E-1,2.398052067E-2,-6.362372078E-3,6.865965713E-1
7.704857417E0,-6.864182353E-1,1.409912761E-2,-6.168494001E-3,6.865907292E-1
7.714897417E0,-6.871448755E-1,2.500805072E-3,-3.923656885E-3,6.871606283E-1
7.724936417E0,-6.891674995E-1,-2.929380164E-3,-3.844028339E-3,6.891844457E-1
7.734975417E0,-6.928747296E-1,-1.078433450E-2,-5.311993882E-3,6.929790113E-1
7.745014417E0,-6.957677007E-1,-1.397293713E-2,-9.548017755E-3,6.959734915E-1
7.755053417E0,-6.995584369E-1,-1.624523476E-2,-1.260905061E-2,6.998606307E-1
7.765092417E0,-6.998245120E-1,-2.044131234E-2,-1.908399537E-2,7.003830336E-1
7.775132417E0,-7.018824816E-1,-2.271006070E-2,-2.849947102E-2,7.028278485E-1
7.785171417E0,-7.026734352E-1,-2.390502207E-2,-3.551716730E-2,7.039764739E-1
7.795210417E0,-7.016548514E-1,-2.310522273E-2,-4.861043394E-2,7.037161048E-1
7.805249417E0,-7.009459138E-1,-1.945962012E-2,-5.812298134E-2,7.036207301E-1
7.815288417E0,-7.004885674E-1,-1.765014231E-2,-6.937047094E-2,7.041363666E-1
7.825327417E0,-7.019059062E-1,-1.890422404E-2,-7.892668992E-2,7.065824037E-1
7.835366417E0,-7.042342424E-1,-2.044150978E-2,-8.659924567E-2,7.098331867E-1
7.845406417E0,-7.021340728E-1,-2.361200191E-2,-9.146644175E-2,7.084602267E-1
7.855445417E0,-7.011107206E-1,-2.899035811E-2,-9.290154278E-2,7.078328758E-1
7.865484417E0,-6.990973353E-1,-3.033232316E-2,-9.220112860E-2,7.058032178E-1
7.875523417E0,-6.944414377E-1,-3.094883636E-2,-8.959889412E-2,7.008813756E-1
7.885562417E0,-6.849853396E-1,-3.047319502E-2,-8.378814906E-2,6.907633351E-1
7.895601417E0,-6.767094731E-1,-2.872601151E-2,-7.528178394E-2,6.814897224E-1
7.905640417E0,-6.664440632E-1,-3.026372194E-2,-6.667205691E-2,6.704541337E-1
7.915680417E0,-6.559920311E-1,-3.121571243E-2,-5.407756567E-2,6.589570158E-1
7.925719417E0,-6.445444226E-1,-3.193370253E-2,-4.069411755E-2,6.466167994E-1
7.935758417E0,-6.336859465E-1,-3.274061158E-2,-3.070228919E-2,6.352735292E-1
7.945797417E0,-6.197797060E-1,-3.146708757E-2,-2.289070562E-2,6.210000370E-1
7.955836417E0,-6.047270894E-1,-3.180740029E-2,-1.577956229E-2,6.057685680E-1
7.965875417E0,-5.879140496E-1,-3.501970321E-2,-1.065377612E-2,5.890524699E-1
7.975914417E0,-5.741397738E-1,-3.762631491E-2,-6.516156718E-3,5.754082723E-1
7.985954417E0,-5.577213764E-1,-3.711685166E-2,-6.560365669E-3,5.589935892E-1
7.995993417E0,-5.386047363E-1,-4.129907116E-2,-5.383188836E-3,5.402126007E-1
8.006032417E0,-5.211109519E-1,-4.312760010E-2,-5.630064290E-3,5.229228544E-1
8.016071417E0,-5.044110417E-1,-4.547007382E-2,-3.243232612E-3,5.064667266E-1
8.026110417E0,-4.874799848E-1,-4.767170921E-2,-2.164386213E-3,4.898101795E-1
8.036149417E0,-4.706259668E-1,-5.143136159E-2,1.072402578E-3,4.734291242E-1
8.046188417E0,-4.539955854E-1,-5.135120079E-2,5.923083518E-3,4.569289008E-1
8.056228417E0,-4.355762005E-1,-5.171445012E-2,9.859029204E-3,4.387461809E-1
8.066267417E0,-4.187617898E-1,-5.408545583E-2,1.740136743E-2,4.225984864E-1
8.076306417E0,-3.984456956E-1,-5.639257282E-2,2.374969237E-2,4.031167852E-1
8.086345417E0,-3.819604814E-1,-5.579575896E-2,3.026777878E-2,3.871990632E-1
8.096384417E0,-3.620231152E-1,-5.669865757E-2,3.795592487E-2,3.683966964E-1
8.106423417E0,-3.432105482E-1,-5.906381458E-2,4.574194551E-2,3.512468365E-1
8.116462417E0,-3.241380751E-1,-5.505492911E-2,5.311561376E-2,3.330432485E-1
8.126502417E0,-3.013890684E-1,-5.667306855E-2,5.996020883E-2,3.124778934E-1
8.136541417E0,-2.808220983E-1,-5.665279925E-2,6.687221676E-2,2.941810393E-1
8.146580417E0,-2.593706250E-1,-5.279307812E-2,7.339989394E-2,2.746775831E-1
8.156619417E0,-2.391792089E-1,-5.830801278E-2,7.597228140E-2,2.576398763E-1
8.166658417E0,-2.177783251E-1,-5.125968903E-2,7.697549462E-2,2.366013131E-1
8.176697417E0,-1.975580454E-1,-5.198023468E-2,7.573658228E-2,2.178695848E-1
8.186737417E0,-1.761382371E-1,-4.763501883E-2,7.538211346E-2,1.974240021E-1
8.196776417E0,-1.565833688E-1,-4.433424771E-2,7.377012819E-2,1.786782267E-1
8.206815417E0,-1.380038261E-1,-4.539818317E-2,7.087048143E-2,1.616436705E-1
8.216854417E0,-1.187682152E-1,-4.262115434E-2,6.740752608E-2,1.430602192E-1
8.226893417E0,-1.002523229E-1,-4.115428403E-2,6.153899059E-2,1.246244386E-1
8.236932417E0,-7.940210402E-2,-3.732965142E-2,5.770405009E-2,1.050140676E-1
8.246971417E0,-5.708721653E-2,-3.757652640E-2,5.213910714E-2,8.596180617E-2
8.257011417E0,-3.667956591E-2,-3.605779260E-2,4.665844515E-2,6.944469358E-2
8.267050417E0,-1.648348570E-2,-3.187183663E-2,4.178299382E-2,5.507574642E-2
8.277089417E0,3.352897707E-3,-3.168701380E-2,3.588875383E-2,4.799282674E-2
8.287128417E0,2.573490329E-2,-2.873223647E-2,2.998372540E-2,4.885540348E-2
8.297167417E0,4.692133889E-2,-2.672905847E-2,2.400809340E-2,5.909689635E-2
8.307205958E0,6.955740601E-2,-2.483368665E-2,1.835713163E-2,7.610472393E-2
8.317244958E0,9.064746648E-2,-2.246865816E-2,1.077500824E-2,9.401013021E-2
8.327284958E0,1.118744612E-1,-2.321168035E-2,5.759210326E-3,1.144021227E-1
8.337323958E0,1.295261681E-1,-2.058826014E-2,6.306734867E-4,1.311537359E-1
8.347362958E0,1.468468308E-1,-1.888783276E-2,-4.359557759E-3,1.481207200E-1
8.357401958E0,1.684048772E-1,-1.830624789E-2,-1.135211624E-2,1.697768886E-1
8.367440958E0,1.864331514E-1,-1.742847078E-2,-1.770934835E-2,1.880816114E-1
8.377479958E0,2.076188177E-1,-1.555450354E-2,-2.347901091E-2,2.095203570E-1
8.387518958E0,2.271019667E-1,-1.609432697E-2,-2.928603441E-2,2.295473861E-1
8.397558958E0,2.487000525E-1,-1.371435449E-2,-3.871981055E-2,2.520694812E-1
8.407597958E0,2.671464384E-1,-1.159101725E-2,-4.653326049E-2,2.714164983E-1
8.417636958E0,2.868913710E-1,-1.172142569E-2,-5.343617126E-2,2.920607385E-1
8.427675958E0,3.053763807E-1,-1.355074998E-2,-6.230103597E-2,3.119611767E-1
8.437714958E0,3.235806823E-1,-6.329114549E-3,-7.006637007E-2,3.311401695E-1
8.447753958E0,3.422997892E-1,-1.345812995E-2,-7.548909634E-2,3.507832245E-1
8.457792958E0,3.587040901E-1,-9.335398674E-3,-7.832561433E-2,3.672746599E-1
8.467832958E0,3.781803250E-1,-1.181187294E-2,-8.421652764E-2,3.876239184E-1
8.477871958E0,3.961175978E-1,-2.464245073E-3,-8.830276877E-2,4.058480045E-1
8.487910958E0,4.194716513E-1,-7.961542346E-3,-9.165169299E-2,4.294413641E-1
8.497949958E0,4.380385578E-1,2.322906163E-3,-9.321864694E-2,4.478536481E-1
8.507988958E0,4.530494809E-1,-7.945904508E-4,-8.935227245E-2,4.617773188E-1
8.518027958E0,4.677674174E-1,3.985632211E-4,-8.821714669E-2,4.760134248E-1
8.528067958E0,4.857805073E-1,4.097427707E-3,-8.481229097E-2,4.931456326E-1
8.538106958E0,5.049722791E-1,4.551230464E-3,-8.108813316E-2,5.114616326E-1
8.548145958E0,5.185701251E-1,9.643194266E-3,-7.270636410E-2,5.237310199E-1
8.558184958E0,5.345888138E-1,1.427781302E-2,-6.544106454E-2,5.387685855E-1
8.568223958E0,5.486686826E-1,1.014032587E-2,-5.851205066E-2,5.518730013E-1
8.578262958E0,5.620234013E-1,1.776292548E-2,-5.004087836E-2,5.645262745E-1
8.588301958E0,5.769624114E-1,1.779754460E-2,-4.287165031E-2,5.788267056E-1
8.598341958E0,5.899866819E-1,1.770744100E-2,-3.638565168E-2,5.913727707E-1
8.608380958E0,6.024452448E-1,2.034397051E-2,-2.839057520E-2,6.034568542E-1
8.618419958E0,6.089563966E-1,2.298779972E-2,-2.311726660E-2,6.098284512E-1
8.628458958E0,6.200892329E-1,2.495987155E-2,-1.561168022E-2,6.207877065E-1
8.638497958E0,6.306708455E-1,2.101127431E-2,-8.200887591E-3,6.310740397E-1
8.648536958E0,6.386046410E-1,2.402224392E-2,-1.913696760E-3,6.390591662E-1
8.658575958E0,6.467562914E-1,2.663920447E-2,3.869254142E-3,6.473162433E-1
8.668615958E0,6.536639929E-1,2.466233820E-2,1.013593934E-2,6.542075999E-1
8.678654958E0,6.599311233E-1,2.741671726E-2,1.563100144E-2,6.606853200E-1
8.688693958E0,6.658015251E-1,3.069453500E-2,2.064200491E-2,6.668282520E-1
8.698732958E0,6.722081900E-1,3.252818808E-2,2.595223114E-2,6.734949532E-1
8.708771958E0,6.791787744E-1,3.322620317E-2,3.165778890E-2,6.807275547E-1
8.718810958E0,6.827998757E-1,2.862763777E-2,3.584933653E-2,6.843393799E-1
8.728849958E0,6.880678535E-1,2.296122909E-2,3.977243975E-2,6.895987500E-1
8.738889958E0,6.934645772E-1,3.005455062E-2,4.294314235E-2,6.954426715E-1
8.748928958E0,6.991890669E-1,3.439017385E-2,4.913073033E-2,7.017562711E-1
8.758967958E0,7.024977803E-1,3.698484227E-2,5.270772427E-2,7.054424953E-1
8.769006958E0,7.042469382E-1,3.951830417E-2,5.649846792E-2,7.076139648E-1
8.779045958E0,7.079262733E-1,3.481901437E-2,5.953664705E-2,7.112781345E-1
8.789084958E0,7.089036703E-1,2.721941657E-2,6.411994994E-2,7.123178212E-1
8.799124958E0,7.085127234E-1,2.204209194E-2,6.545029581E-2,7.118706865E-1
8.809163958E0,7.089907527E-1,2.350523323E-2,6.705164909E-2,7.125421440E-1
8.819202958E0,7.061678171E-1,2.419451624E-2,6.455050409E-2,7.095245789E-1
8.829241958E0,7.065683603E-1,2.294975519E-2,5.922578275E-2,7.094175304E-1
8.839280958E0,7.034082413E-1,3.829805553E-2,5.417944491E-2,7.065304715E-1
8.849319958E0,7.027629614E-1,4.585877061E-2,5.102279782E-2,7.061034858E-1
8.859358958E0,7.045535445E-1,2.066213265E-2,4.577952251E-2,7.063415502E-1
8.869398958E0,6.992767453E-1,2.268001065E-2,3.904758394E-2,7.007332326E-1
8.879437958E0,6.911361814E-1,4.384129122E-2,3.196186200E-2,6.932624616E-1
8.889476958E0,6.917708516E-1,1.958734915E-2,2.324240468E-2,6.924382895E-1
8.899515958E0,6.853471994E-1,3.281844407E-2,1.498675346E-2,6.862961728E-1
8.909554958E0,6.765584946E-1,4.283992201E-2,9.899849072E-3,6.779857392E-1
8.919593958E0,6.737800837E-1,1.308958046E-2,4.551614635E-3,6.739225886E-1
8.929632958E0,6.665583849E-1,2.608474158E-2,-5.561472848E-3,6.670917659E-1
8.939672958E0,6.555220485E-1,4.110288620E-2,-7.195025682E-3,6.568488195E-1
8.949711958E0,6.566770673E-1,1.353810541E-2,-1.228246279E-2,6.569314347E-1
8.959750958E0,6.474820971E-1,3.471088782E-2,-1.886468753E-2,6.486862017E-1
8.969789958E0,6.383575797E-1,2.307287417E-2,-2.154675685E-2,6.391377159E-1
8.979828958E0,6.246278882E-1,1.811699755E-2,-2.499448508E-2,6.253902371E-1
8.989867958E0,6.120676398E-1,1.636250690E-2,-2.769280039E-2,6.129122438E-1
8.999906958E0,6.027391553E-1,7.508689538E-3,-3.085280396E-2,6.035749873E-1
9.009946958E0,5.960580707E-1,2.393133938E-2,-3.221980482E-2,5.974077740E-1
9.019985958E0,5.825889111E-1,8.661276661E-3,-3.710448369E-2,5.838335377E-1
9.030024958E0,5.731935501E-1,2.198826708E-2,-3.825976327E-2,5.748896757E-1
9.040063958E0,5.583959818E-1,1.184196677E-2,-4.173311591E-2,5.600785281E-1
9.050102958E0,5.439643264E-1,1.014952827E-2,-4.713320732E-2,5.460968234E-1
9.060141958E0,5.280175805E-1,4.511221312E-3,-5.320318788E-2,5.307103689E-1
9.070181958E0,5.132338405E-1,8.850043640E-3,-5.968904868E-2,5.167688853E-1
9.080220958E0,4.982386827E-1,1.356127486E-2,-6.463834643E-2,5.025970642E-1
9.090259958E0,4.810748696E-1,-1.921811141E-3,-7.513891906E-2,4.869112657E-1
9.100298958E0,4.640481472E-1,-1.911286265E-3,-7.640216500E-2,4.702995075E-1
9.110337958E0,4.459629059E-1,-1.146803889E-2,-8.777785301E-2,4.546640307E-1
9.120376958E0,4.311806858E-1,-5.276237614E-3,-9.529092908E-2,4.416163308E-1
9.130415958E0,4.053575993E-1,1.706235670E-2,-1.020513624E-1,4.183543807E-1
9.140455958E0,3.859032094E-1,3.211551346E-3,-9.965806454E-2,3.985766312E-1
9.150494958E0,3.680744171E-1,-1.498289965E-2,-9.976805747E-2,3.816502707E-1
9.160533958E0,3.511669338E-1,2.503068373E-2,-9.296949953E-2,3.641264593E-1
9.170572958E0,3.367288709E-1,-1.256276481E-2,-8.796914667E-2,3.482566960E-1
9.180611958E0,3.171548843E-1,-1.944218576E-2,-7.948954403E-2,3.275420688E-1
9.190650958E0,2.937670052E-1,3.369919024E-3,-7.410649955E-2,3.029887506E-1
9.200689958E0,2.751928866E-1,-1.449007541E-2,-6.639342755E-2,2.834592993E-1
9.210729958E0,2.595324516E-1,-3.094201908E-2,-5.914110690E-2,2.679779329E-1
9.220768958E0,2.391863316E-1,-9.718611836E-4,-5.387091637E-2,2.451797736E-1
9.230807958E0,2.152048349E-1,-6.011491641E-4,-4.913608357E-2,2.207438268E-1
9.240846958E0,1.961941272E-1,-1.984461769E-2,-4.281879961E-2,2.017904705E-1
9.250885958E0,1.776121855E-1,-1.381708682E-2,-3.944111243E-2,1.824626035E-1
9.260924958E0,1.581718326E-1,-2.242606878E-2,-3.150146082E-2,1.628299702E-1
9.270963958E0,1.374734789E-1,-3.540844470E-2,-2.826998010E-2,1.447477362E-1
9.281003958E0,1.158980057E-1,-3.900705837E-3,-2.349497750E-2,1.183198090E-1
9.291042958E0,1.004447490E-1,-1.925116777E-2,-2.310455777E-2,1.048502535E-1
9.301081958E0,7.735455036E-2,-2.127097920E-2,-1.643228717E-2,8.189139808E-2
9.311121167E0,5.683569238E-2,-1.833750680E-2,-1.178160869E-2,6.087172075E-2
9.321160167E0,3.858620673E-2,-2.275596932E-2,-4.755983129E-3,4.504829481E-2
9.331199167E0,1.575066708E-2,-2.455519885E-2,2.683557104E-3,2.929578097E-2
9.341239167E0,-6.881889421E-3,-2.704169042E-2,9.390119463E-3,2.944125959E-2
9.351278167E0,-2.702337690E-2,-2.711919136E-2,1.652952097E-2,4.170058156E-2
9.361317167E0,-4.491187260E-2,-2.777312323E-2,2.528003417E-2,5.854487853E-2
9.371356167E0,-6.780307740E-2,-3.034360707E-2,3.239493445E-2,8.103964198E-2
9.381395167E0,-9.086653590E-2,-3.184763342E-2,4.049424455E-2,1.044546933E-1
9.391434167E0,-1.135742441E-1,-3.247959912E-2,4.667650536E-2,1.270146819E-1
9.401473167E0,-1.391474605E-1,-3.322973847E-2,5.365480483E-2,1.527909335E-1
9.411513167E0,-1.617129445E-1,-3.307714313E-2,5.884077772E-2,1.752353016E-1
9.421552167E0,-1.842607856E-1,-3.294583037E-2,6.296453625E-2,1.974892343E-1
9.431591167E0,-2.079349607E-1,-3.538395092E-2,6.813240051E-2,2.216551282E-1
9.441630167E0,-2.310862392E-1,-3.277089819E-2,7.158281654E-2,2.441288212E-1
9.451669167E0,-2.565356791E-1,-3.372457623E-2,7.479751855E-2,2.693372801E-1
9.461708167E0,-2.797187269E-1,-3.218958527E-2,7.667062432E-2,2.918169292E-1
9.471747167E0,-3.032272458E-1,-3.100367822E-2,7.763655484E-2,3.145400218E-1
9.481787167E0,-3.232972026E-1,-3.339148685E-2,7.923352718E-2,3.345355354E-1
9.491826167E0,-3.445303142E-1,-3.041327372E-2,7.972541451E-2,3.549397785E-1
9.501865167E0,-3.647857010E-1,-2.982866019E-2,8.024609089E-2,3.746969332E-1
9.511904167E0,-3.851841986E-1,-3.050084412E-2,8.304987103E-2,3.952144347E-1
9.521943167E0,-4.053843021E-1,-3.228635713E-2,8.444260061E-2,4.153425021E-1
9.531982167E0,-4.226527810E-1,-2.106912062E-2,8.803999424E-2,4.322387323E-1
9.542021167E0,-4.394904375E-1,-3.370030224E-2,8.996419609E-2,4.498678824E-1
9.552061167E0,-4.568425119E-1,-4.385839775E-2,9.217727929E-2,4.681082039E-1
9.562100167E0,-4.756537676E-1,-4.157095402E-2,8.961141109E-2,4.858033098E-1
9.572139167E0,-4.892979264E-1,-3.337667137E-2,8.873949200E-2,4.983985959E-1
9.582178167E0,-5.003644228E-1,-3.936330229E-2,9.018108249E-2,5.099476961E-1
9.592217167E0,-5.112079978E-1,-3.247423470E-2,8.949425071E-2,5.199975133E-1
9.602256167E0,-5.263460875E-1,-3.591217846E-2,8.609191328E-2,5.345481324E-1
9.612295167E0,-5.394373536E-1,-3.988401592E-2,8.140607923E-2,5.470012275E-1
9.622335167E0,-5.515449643E-1,-3.288642317E-2,7.587086409E-2,5.577093800E-1
9.632374167E0,-5.604524612E-1,-3.999359906E-2,6.976050138E-2,5.661916432E-1
9.642413167E0,-5.677872896E-1,-3.713397682E-2,6.098957732E-2,5.722596151E-1
9.652452167E0,-5.788601637E-1,-2.678999305E-2,5.262805149E-2,5.818646790E-1
9.662491167E0,-5.896970630E-1,-2.634251304E-2,4.464523867E-2,5.919710731E-1
9.672530167E0,-5.982876420E-1,-3.765828162E-2,3.650129214E-2,6.005818787E-1
9.682570167E0,-6.052327156E-1,-4.184465483E-2,2.726309560E-2,6.072897921E-1
9.692609167E0,-6.142765284E-1,-3.513988107E-2,1.869916916E-2,6.155648816E-1
9.702648167E0,-6.213714480E-1,-3.058098257E-2,1.260045730E-2,6.222511105E-1
9.712687167E0,-6.308065057E-1,-2.774338424E-2,6.320458371E-3,6.314479323E-1
9.722726167E0,-6.364400983E-1,-2.836557850E-2,4.468154628E-3,6.370875679E-1
9.732765167E0,-6.423578858E-1,-2.397562563E-2,2.823652234E-3,6.428113698E-1
9.742804167E0,-6.471458077E-1,-2.139373869E-2,5.474534817E-3,6.475224777E-1
9.752844167E0,-6.530369520E-1,-2.040197700E-2,7.696409710E-3,6.534009000E-1
9.762883167E0,-6.563701034E-1,-1.843848825E-2,8.428024128E-3,6.566831215E-1
9.772922167E0,-6.619342566E-1,-1.552712079E-2,1.129385177E-2,6.622126566E-1
9.782961167E0,-6.668878794E-1,-1.565014012E-2,1.142366603E-2,6.671692969E-1
9.793000167E0,-6.716576219E-1,-1.821210049E-2,1.004681177E-2,6.719795979E-1
9.803039167E0,-6.763452291E-1,-2.305512689E-2,5.540329032E-3,6.767607429E-1
9.813078167E0,-6.800009608E-1,-2.336538397E-2,1.351176295E-3,6.804036108E-1
9.823118167E0,-6.839875579E-1,-1.282543130E-2,-7.223905064E-3,6.841459317E-1
9.833157167E0,-6.876909733E-1,-2.760812640E-3,-1.438780874E-2,6.878470076E-1
9.843196167E0,-6.905791759E-1,-7.003515959E-3,-2.324094065E-2,6.910056359E-1
9.853235167E0,-6.916364431E-1,-1.305634808E-2,-3.025570698E-2,6.924210031E-1
9.863274167E0,-6.966232061E-1,-8.733186871E-3,-4.027302191E-2,6.978410107E-1
9.873313167E0,-7.016443610E-1,-2.382613719E-3,-4.703612253E-2,7.032232100E-1
9.883352167E0,-7.059141397E-1,-3.918620758E-3,-5.481429398E-2,7.080499524E-1
9.893392167E0,-7.090521455E-1,-3.695446998E-3,-5.942396075E-2,7.115474745E-1
9.903431167E0,-7.094644308E-1,3.983862698E-4,-5.903169513E-2,7.119162018E-1
9.913470167E0,-7.106884122E-1,5.386753473E-3,-5.928229541E-2,7.131769955E-1
9.923509167E0,-7.106596231E-1,-1.055079512E-3,-5.760477483E-2,7.129912505E-1
9.933548167E0,-7.081499100E-1,3.452853300E-3,-5.291255191E-2,7.101323506E-1
9.943587167E0,-7.061039209E-1,1.018792111E-2,-4.488779604E-2,7.076026110E-1
9.953627167E0,-7.021542192E-1,1.144519914E-2,-4.236764833E-2,7.035243831E-1
9.963666167E0,-6.985004544E-1,7.061969023E-3,-3.347946331E-2,6.993379946E-1
9.973705167E0,-6.927450895E-1,1.166231371E-2,-2.595203929E-2,6.933291260E-1
9.983744167E0,-6.868596077E-1,1.486953907E-2,-2.188071795E-2,6.873688891E-1
9.993783167E0,-6.794594526E-1,1.541628595E-2,-1.788597554E-2,6.798696329E-1
1.000382217E1,-6.708860397E-1,1.447265036E-2,-1.203468442E-2,6.711500350E-1
1.001386117E1,-6.602624059E-1,1.888737082E-2,-9.415465407E-3,6.605995976E-1
1.002390117E1,-6.484051943E-1,2.383802831E-2,-5.505825859E-3,6.488665978E-1
1.003394017E1,-6.374129653E-1,2.411765978E-2,-7.321835496E-3,6.379110903E-1
1.004397917E1,-6.260244250E-1,2.623784542E-2,-5.837820005E-3,6.266012172E-1
1.005401817E1,-6.112454534E-1,2.924455516E-2,-5.374163389E-3,6.119682425E-1
1.006405717E1,-5.972216725E-1,3.211532533E-2,-2.929160139E-3,5.980917156E-1
1.007409617E1,-5.849325061E-1,3.240187839E-2,-3.377370071E-3,5.858389924E-1
1.008413517E1,-5.700674653E-1,3.303804621E-2,1.812377945E-3,5.710268927E-1
1.009417517E1,-5.521355867E-1,3.781282902E-2,6.347741000E-3,5.534652744E-1
1.010421417E1,-5.352810025E-1,3.755937517E-2,8.076736704E-3,5.366578910E-1
1.011425317E1,-5.199931264E-1,3.896339610E-2,1.412557624E-2,5.216421471E-1
1.012429217E1,-5.011554956E-1,3.843904659E-2,1.777641289E-2,5.029417381E-1
1.013433117E1,-4.821450710E-1,4.271288961E-2,2.290779166E-2,4.845750998E-1
1.014437017E1,-4.655043781E-1,4.298874363E-2,2.812329680E-2,4.683303086E-1
1.015440917E1,-4.460105896E-1,4.396852106E-2,3.255559504E-2,4.493534729E-1
1.016444917E1,-4.281392395E-1,4.597940296E-2,3.530609608E-2,4.320461021E-1
1.017448817E1,-4.078339636E-1,4.740286246E-2,4.163589701E-2,4.126852568E-1
1.018452717E1,-3.881623149E-1,4.741412774E-2,4.503735900E-2,3.936323741E-1
1.019456617E1,-3.672109544E-1,4.950151220E-2,5.119884759E-2,3.740529465E-1
1.020460517E1,-3.451839089E-1,5.218078196E-2,5.216035247E-2,3.529808314E-1
1.021464417E1,-3.262706697E-1,5.263831466E-2,5.659398437E-2,3.353001956E-1
1.022468417E1,-3.084330857E-1,5.094353482E-2,5.666864291E-2,3.177066999E-1
1.023472317E1,-2.895675302E-1,5.189162120E-2,5.566463247E-2,2.994004779E-1
1.024476217E1,-2.705873847E-1,5.175536498E-2,5.433004349E-2,2.807986898E-1
1.025480117E1,-2.531601787E-1,5.277295783E-2,5.157447234E-2,2.636948754E-1
1.026484017E1,-2.347856462E-1,5.260820687E-2,4.929952696E-2,2.456061205E-1
1.027487917E1,-2.171235681E-1,5.431316793E-2,4.558601603E-2,2.284089510E-1
1.028491817E1,-1.988964528E-1,5.334458500E-2,4.338337108E-2,2.104460990E-1
1.029495817E1,-1.806956232E-1,5.360956863E-2,3.820458800E-2,1.923135061E-1
1.030499717E1,-1.650961488E-1,5.320713297E-2,3.417797759E-2,1.767933017E-1
1.031503654E1,-1.455874294E-1,5.369156227E-2,3.080642037E-2,1.582008818E-1
1.032507554E1,-1.299855411E-1,5.358634144E-2,2.706450038E-2,1.431789931E-1
1.033511454E1,-1.127037629E-1,5.468196422E-2,2.327988297E-2,1.274135328E-1
1.034515354E1,-9.600199759E-2,5.703934282E-2,1.847697422E-2,1.131868753E-1
1.035519254E1,-7.890050858E-2,5.851100385E-2,1.494508982E-2,9.935886239E-2
1.036523254E1,-6.104171276E-2,5.694270879E-2,1.219561324E-2,8.436406678E-2
1.037527154E1,-4.483317956E-2,5.841384083E-2,9.920207784E-3,7.430074907E-2
1.038531054E1,-2.526004426E-2,5.890021473E-2,8.101874962E-3,6.459833984E-2
1.039534954E1,-6.726040505E-3,5.886825174E-2,4.585970193E-3,5.942845957E-2
1.040538854E1,1.395605970E-2,5.980704725E-2,-8.480325341E-4,6.141965208E-2
1.041542754E1,3.525042906E-2,5.906136334E-2,-4.926663823E-3,6.895730132E-2
1.042546654E1,5.674922466E-2,6.103745848E-2,-9.847072884E-3,8.392264701E-2
1.043550654E1,7.707021385E-2,5.903130025E-2,-1.627461240E-2,9.843462440E-2
1.044554554E1,9.690446407E-2,5.950667337E-2,-1.804202050E-2,1.151391933E-1
1.045558454E1,1.179807261E-1,6.147634611E-2,-2.318991162E-2,1.350428260E-1
1.046562354E1,1.402407140E-1,5.911636353E-2,-2.758547477E-2,1.546711373E-1
1.047566254E1,1.600487679E-1,5.975445360E-2,-3.548201546E-2,1.744854615E-1
1.048570154E1,1.805547625E-1,5.756448954E-2,-4.071781784E-2,1.938340357E-1
1.049574054E1,2.050649077E-1,5.978103727E-2,-4.665134102E-2,2.186360821E-1
1.050578054E1,2.266045064E-1,5.726875365E-2,-5.173355713E-2,2.393860342E-1
1.051581954E1,2.505684197E-1,5.421064422E-2,-5.644521862E-2,2.625059801E-1
1.052585854E1,2.711411715E-1,5.226762220E-2,-5.545600131E-2,2.816466000E-1
1.053589754E1,2.936899066E-1,4.950432479E-2,-5.719664693E-2,3.032752806E-1
1.054593654E1,3.173369467E-1,5.010922626E-2,-5.386457220E-2,3.257530728E-1
1.055597554E1,3.394257426E-1,4.926021025E-2,-5.011403933E-2,3.466234557E-1
1.056601454E1,3.664979041E-1,4.429423437E-2,-4.846223444E-2,3.723322187E-1
1.057605454E1,3.865248859E-1,5.769259855E-2,-4.375296086E-2,3.932483248E-1
1.058609354E1,4.043229520E-1,4.192195833E-2,-3.998603672E-2,4.084524247E-1
1.059613254E1,4.224923551E-1,2.934677899E-2,-3.213104606E-2,4.247274746E-1
1.060617154E1,4.385421872E-1,3.261654824E-2,-2.817048132E-2,4.406548141E-1
1.061621054E1,4.553733766E-1,1.557151973E-2,-2.752519771E-2,4.564701752E-1
1.062624954E1,4.757587314E-1,3.087855130E-2,-2.588294633E-2,4.774618124E-1
1.063628854E1,4.911163747E-1,2.887905017E-2,-2.076275274E-2,4.924026655E-1
1.064632854E1,5.017952919E-1,1.250898372E-2,-1.944843680E-2,5.023278126E-1
1.065636754E1,5.154546499E-1,3.106242791E-2,-2.039492503E-2,5.167923408E-1
1.066640654E1,5.372300744E-1,3.893994167E-2,-1.988817006E-2,5.390065039E-1
1.067644554E1,5.491061807E-1,7.459493354E-4,-2.113426290E-2,5.495132493E-1
1.068648454E1,5.547737479E-1,4.869872704E-3,-2.279382572E-2,5.552631678E-1
1.069652354E1,5.625427365E-1,5.887732841E-3,-2.164760232E-2,5.629898885E-1
1.070656354E1,5.708696842E-1,1.473695505E-2,-2.148273587E-2,5.714638065E-1
1.071660254E1,5.817252994E-1,-4.933970049E-4,-2.175064944E-2,5.821319937E-1
1.072664154E1,5.916745663E-1,2.836730890E-2,-1.674346440E-2,5.925907864E-1
1.073668054E1,6.004504561E-1,6.986387074E-3,-1.407604292E-2,6.006560537E-1
1.074671954E1,6.022989154E-1,-1.858935133E-2,-8.938020095E-3,6.026520021E-1
1.075675854E1,6.085296273E-1,1.402238756E-2,-4.362709820E-3,6.087067996E-1
1.076679754E1,6.155150533E-1,1.711237431E-2,2.521621529E-3,6.157580472E-1
1.077683754E1,6.233045459E-1,8.387593552E-3,1.337240543E-2,6.235043944E-1
1.078687654E1,6.287230849E-1,-4.070531577E-4,2.533918619E-2,6.292336272E-1
1.079691554E1,6.331394315E-1,-1.899032481E-2,3.771702573E-2,6.345460946E-1
1.080695454E1,6.394134164E-1,-1.883584075E-2,4.388422519E-2,6.411943006E-1
1.081699354E1,6.440467834E-1,-1.447278447E-2,5.151844025E-2,6.462660988E-1
1.082703254E1,6.492874026E-1,-1.574318111E-2,5.700999871E-2,6.519755509E-1
1.083707154E1,6.562417150E-1,-1.481426973E-2,6.144949049E-2,6.592789174E-1
1.084711154E1,6.595388055E-1,-1.810388640E-2,6.246247888E-2,6.627373144E-1
1.085715054E1,6.622506976E-1,-2.075745910E-2,6.309285015E-2,6.655731112E-1
1.086718954E1,6.664062738E-1,-2.281259187E-2,6.239954010E-2,6.697099662E-1
1.087722854E1,6.730362177E-1,-2.664860897E-2,6.030869111E-2,6.762581141E-1
1.088726754E1,6.777134538E-1,-2.863018773E-2,5.682508647E-2,6.806939867E-1
1.089730654E1,6.835292578E-1,-3.358233720E-2,5.491586775E-2,6.865535464E-1
1.090734554E1,6.891660690E-1,-3.753818199E-2,5.253452808E-2,6.921841247E-1
1.091738554E1,6.930018067E-1,-4.493218288E-2,4.697677493E-2,6.960439803E-1
1.092742454E1,6.962223053E-1,-5.605956540E-2,4.475675523E-2,6.999080943E-1
1.093746354E1,6.963405609E-1,-6.488714367E-2,3.964427859E-2,7.004799690E-1
1.094750254E1,6.965152025E-1,-6.128055602E-2,3.287415579E-2,6.999781740E-1
1.095754154E1,6.960750222E-1,-4.282218218E-2,2.923920564E-2,6.980036583E-1
1.096758054E1,6.974031925E-1,-3.297882527E-2,3.216738254E-2,6.989231405E-1
1.097761954E1,6.983933449E-1,-6.016197801E-2,3.352559358E-2,7.017810864E-1
1.098765954E1,6.982212067E-1,-7.139041275E-2,3.285622597E-2,7.026300421E-1
1.099769854E1,6.951852441E-1,-4.902518541E-2,3.296727687E-2,6.976910733E-1
1.100773754E1,6.907867193E-1,-7.096281648E-2,3.187646344E-2,6.951533082E-1
1.101777654E1,6.869318485E-1,-8.284371346E-2,3.167352825E-2,6.926338555E-1
1.102781554E1,6.819333434E-1,-4.661348090E-2,2.949275821E-2,6.841605983E-1
1.103785454E1,6.763013005E-1,-8.665836602E-2,2.398827113E-2,6.822525622E-1
1.104789354E1,6.675341129E-1,-8.431272954E-2,1.663587056E-2,6.730432233E-1
1.105793354E1,6.624461412E-1,-5.209168047E-2,1.262914576E-2,6.646111108E-1
1.106797254E1,6.554070711E-1,-9.837826341E-2,2.954385243E-3,6.627559430E-1
1.107801154E1,6.436436176E-1,-8.330743760E-2,-5.793566350E-3,6.490383664E-1
1.108805054E1,6.357562542E-1,-5.848047137E-2,-1.156956423E-2,6.385450925E-1
1.109808954E1,6.303737164E-1,-1.007139459E-1,-2.231382206E-2,6.387583485E-1
1.110812854E1,6.143096685E-1,-6.766077876E-2,-3.192095459E-2,6.188483636E-1
1.111816754E1,6.003690958E-1,-9.400556237E-2,-3.911361843E-2,6.089416820E-1
1.112820754E1,5.797104239E-1,-9.108263999E-2,-4.595502838E-2,5.886187965E-1
1.113824654E1,5.645394325E-1,-7.801317424E-2,-4.996122047E-2,5.720899840E-1
1.114828554E1,5.532947779E-1,-1.008777171E-1,-5.444180965E-2,5.650445431E-1
1.115832454E1,5.382345915E-1,-7.208787650E-2,-5.389426649E-2,5.457084655E-1
1.116836354E1,5.207503438E-1,-9.612444788E-2,-5.608063191E-2,5.325090303E-1
1.117840254E1,5.030946732E-1,-8.164377511E-2,-5.274395645E-2,5.123981666E-1
1.118844154E1,4.796929955E-1,-8.686821163E-2,-5.246503651E-2,4.903101429E-1
1.119848154E1,4.643076360E-1,-8.640855551E-2,-4.876670614E-2,4.747907023E-1
1.120852054E1,4.424454272E-1,-7.594674081E-2,-4.983551800E-2,4.516740443E-1
1.121855954E1,4.264779091E-1,-8.111993223E-2,-4.628126323E-2,4.365842481E-1
1.122859854E1,4.105665386E-1,-7.482701540E-2,-4.355208576E-2,4.195959354E-1
1.123863754E1,3.931835592E-1,-9.456956387E-2,-3.911951929E-2,4.062844452E-1
1.124867654E1,3.703109324E-1,-9.473791718E-2,-3.618029505E-2,3.839459250E-1
1.125871554E1,3.549559414E-1,-9.843784571E-2,-3.649614751E-2,3.701563165E-1
1.126875554E1,3.394959867E-1,-9.577612579E-2,-3.720492870E-2,3.547038173E-1
1.127879454E1,3.162947893E-1,-7.829966396E-2,-3.717935830E-2,3.279566066E-1
1.128883354E1,2.953676581E-1,-8.195032179E-2,-3.421846032E-2,3.084295896E-1
1.129887254E1,2.768464386E-1,-9.134675562E-2,-3.070814721E-2,2.931401894E-1
1.130891158E1,2.586975098E-1,-7.383267581E-2,-2.947262116E-2,2.706368433E-1
1.131895058E1,2.425555587E-1,-7.222013175E-2,-2.231697366E-2,2.540610041E-1
1.132898958E1,2.274336517E-1,-7.989843190E-2,-1.715912484E-2,2.416697352E-1
1.133902958E1,2.096424103E-1,-7.803235948E-2,-1.159018837E-2,2.239940218E-1
1.134906858E1,1.924246550E-1,-7.245871425E-2,-6.791838445E-3,2.057271061E-1
1.135910758E1,1.720376164E-1,-7.114471495E-2,-1.349136000E-3,1.861728554E-1
1.136914658E1,1.539875567E-1,-7.505334169E-2,6.126549561E-3,1.714138452E-1
1.137918558E1,1.381113976E-1,-6.576689333E-2,1.400071755E-2,1.536100990E-1
1.138922458E1,1.200038865E-1,-6.810364127E-2,1.995195076E-2,1.394170688E-1
1.139926458E1,1.027218401E-1,-6.960885972E-2,2.602209337E-2,1.267845382E-1
1.140930358E1,8.507554978E-2,-6.397546083E-2,3.301087767E-2,1.114469686E-1
1.141934258E1,6.776154041E-2,-6.373391300E-2,3.816116601E-2,1.005480612E-1
1.142938158E1,4.794985056E-2,-6.222712994E-2,4.320788383E-2,8.965670691E-2
1.143942058E1,3.118072264E-2,-5.841295421E-2,4.743698612E-2,8.145292098E-2
1.144945958E1,1.369700674E-2,-5.537702143E-2,4.994041845E-2,7.581733239E-2
1.145949858E1,-4.285988864E-3,-5.236925185E-2,5.623506755E-2,7.696292004E-2
1.146953858E1,-2.579148114E-2,-5.102480948E-2,5.665418506E-2,8.048868471E-2
1.147957758E1,-4.488075152E-2,-4.806550592E-2,5.924917012E-2,8.851575496E-2
1.148961658E1,-6.721094996E-2,-4.472021759E-2,6.076437607E-2,1.010421647E-1
1.149965558E1,-8.710103482E-2,-4.211857170E-2,6.267172843E-2,1.152749318E-1
1.150969458E1,-1.083787605E-1,-3.850052506E-2,6.508078426E-2,1.321505000E-1
1.151973358E1,-1.309679598E-1,-3.543309495E-2,6.557533890E-2,1.506925206E-1
1.152977258E1,-1.531966180E-1,-3.225553781E-2,6.672038883E-2,1.701800040E-1
1.153981258E1,-1.727143824E-1,-3.208589554E-2,6.576085091E-2,1.875746574E-1
1.154985158E1,-1.964695603E-1,-2.849371359E-2,6.960590929E-2,2.103738635E-1
1.155989058E1,-2.179743201E-1,-2.512534708E-2,6.790414453E-2,2.296846972E-1
1.156992958E1,-2.406560481E-1,-2.180130966E-2,6.830410659E-2,2.511097002E-1
1.157996858E1,-2.641488910E-1,-2.004974894E-2,6.897336245E-2,2.737406688E-1
1.159000758E1,-2.856666148E-1,-1.731282659E-2,7.071847469E-2,2.947986625E-1
1.160004658E1,-3.081791103E-1,-1.341928542E-2,7.108838111E-2,3.165564707E-1
1.161008658E1,-3.319347501E-1,-1.026474312E-2,6.988508254E-2,3.393670108E-1
1.162012558E1,-3.527654707E-1,-9.829849005E-3,6.742245704E-2,3.592852502E-1
1.163016458E1,-3.754162490E-1,-8.805941790E-3,6.402458996E-2,3.809383845E-1
1.164020358E1,-3.940066993E-1,-1.541637816E-3,6.215052679E-2,3.988813655E-1
1.165024258E1,-4.111034274E-1,8.603269234E-4,5.726051331E-2,4.150729268E-1
1.166028158E1,-4.327165782E-1,8.984033018E-3,5.364261195E-2,4.361214048E-1
1.167032058E1,-4.513774514E-1,6.912183482E-3,4.989061877E-2,4.541788808E-1
1.168036058E1,-4.695873559E-1,1.562444866E-2,4.400902614E-2,4.719038065E-1
1.169039958E1,-4.878440797E-1,1.573267020E-2,3.791537508E-2,4.895681145E-1
1.170043858E1,-5.017814636E-1,1.740700006E-2,3.459920734E-2,5.032740268E-1
1.171047758E1,-5.175762177E-1,2.639696375E-2,2.921454422E-2,5.190717006E-1
1.172051658E1,-5.297164917E-1,2.275668830E-2,2.188126370E-2,5.306564031E-1
1.173055558E1,-5.452574492E-1,2.704459801E-2,1.717995852E-2,5.461979926E-1
1.174059458E1,-5.532985926E-1,3.554886952E-2,1.117000356E-2,5.545519125E-1
1.175063458E1,-5.643742681E-1,3.623890132E-2,6.567053497E-3,5.655746623E-1
1.176067358E1,-5.751142502E-1,3.552917019E-2,1.109703910E-3,5.762117268E-1
1.177071258E1,-5.840131640E-1,3.997819871E-2,-3.701728303E-3,5.853916082E-1
1.178075158E1,-5.941241384E-1,4.885051772E-2,-1.130212378E-2,5.962361972E-1
1.179079058E1,-6.019065976E-1,4.576342180E-2,-1.555641554E-2,6.038442225E-1
1.180082958E1,-6.147704720E-1,4.906680807E-2,-1.888829656E-2,6.170146292E-1
1.181086858E1,-6.233353019E-1,5.840966851E-2,-2.476573549E-2,6.265556077E-1
1.182090858E1,-6.278157830E-1,5.601575226E-2,-2.987367846E-2,6.310173203E-1
1.183094758E1,-6.346091628E-1,5.764232576E-2,-3.339064494E-2,6.380958881E-1
1.184098658E1,-6.401597261E-1,6.001786143E-2,-3.859952465E-2,6.441246323E-1
1.185102558E1,-6.464156508E-1,6.548684090E-2,-4.142127931E-2,6.510433491E-1
1.186106458E1,-6.512695551E-1,6.704904884E-2,-4.239599407E-2,6.560830958E-1
1.187110358E1,-6.542116404E-1,6.718442589E-2,-4.775121063E-2,6.593836482E-1
1.188114258E1,-6.584751010E-1,6.734129041E-2,-5.034992099E-2,6.638218304E-1
1.189118258E1,-6.629232168E-1,7.519398630E-2,-5.114428699E-2,6.691315753E-1
1.190122158E1,-6.655973196E-1,7.664008439E-2,-5.423914641E-2,6.721870122E-1
1.191126058E1,-6.672413945E-1,6.854234636E-2,-5.484284833E-2,6.729909879E-1
1.192129958E1,-6.669180989E-1,7.181191444E-2,-5.832040310E-2,6.733037733E-1
1.193133858E1,-6.695460081E-1,8.279951662E-2,-5.839493126E-2,6.771688009E-1
1.194137758E1,-6.743471622E-1,8.740145713E-2,-5.885060132E-2,6.825294889E-1
1.195141658E1,-6.764578819E-1,7.807852328E-2,-5.892176554E-2,6.834934501E-1
1.196145658E1,-6.809615493E-1,7.181956619E-2,-5.736142024E-2,6.871368235E-1
1.197149558E1,-6.844192147E-1,7.870710641E-2,-5.681246519E-2,6.912684907E-1
1.198153458E1,-6.861619353E-1,8.846759051E-2,-5.512401834E-2,6.940341299E-1
1.199157358E1,-6.877258420E-1,9.383858740E-2,-5.230508000E-2,6.960663299E-1
1.200161258E1,-6.868792176E-1,9.747459739E-2,-4.439229518E-2,6.951798563E-1
1.201165158E1,-6.857995987E-1,9.833227843E-2,-3.864503279E-2,6.938903120E-1
1.202169058E1,-6.846382022E-1,9.238144010E-2,-2.923768573E-2,6.914612358E-1
1.203173058E1,-6.837369800E-1,8.844967932E-2,-2.004781179E-2,6.897256834E-1
1.204176958E1,-6.808857918E-1,8.936581016E-2,-1.401548460E-2,6.868683595E-1
1.205180858E1,-6.775248051E-1,8.850543946E-2,-4.900888074E-3,6.832986851E-1
1.206184758E1,-6.760883331E-1,9.344960004E-2,7.894882001E-4,6.825165824E-1
1.207188658E1,-6.718714833E-1,9.758991748E-2,8.947622031E-3,6.789809585E-1
1.208192558E1,-6.675284505E-1,1.017132849E-1,1.518554427E-2,6.754038979E-1
1.209196458E1,-6.626827717E-1,1.020826399E-1,2.065789700E-2,6.708174640E-1
1.210200458E1,-6.552978158E-1,1.019651964E-1,2.487660944E-2,6.636497377E-1
1.211204358E1,-6.482118368E-1,1.026116908E-1,2.989875525E-2,6.569639869E-1
1.212208258E1,-6.420506239E-1,1.019107476E-1,3.145617247E-2,6.508489033E-1
1.213212158E1,-6.322727203E-1,1.038125008E-1,3.554779291E-2,6.417238298E-1
1.214216058E1,-6.257724762E-1,1.029440463E-1,3.629427776E-2,6.352211766E-1
1.215219958E1,-6.137558818E-1,1.028904170E-1,3.660647199E-2,6.233961454E-1
1.216223858E1,-6.025370359E-1,1.007942408E-1,3.827041760E-2,6.121070033E-1
1.217227858E1,-5.882296562E-1,1.000213400E-1,3.898299113E-2,5.979448725E-1
1.218231758E1,-5.764462352E-1,9.887085110E-2,4.089354351E-2,5.862917270E-1
1.219235658E1,-5.629917383E-1,9.742885828E-2,4.319689795E-2,5.729904465E-1
1.220239558E1,-5.470069051E-1,9.547808766E-2,4.564381018E-2,5.571498693E-1
1.221243458E1,-5.314529538E-1,9.247058630E-2,5.088864267E-2,5.418327282E-1
1.222247358E1,-5.159022212E-1,9.220106900E-2,5.123218894E-2,5.265746634E-1
1.223251258E1,-5.014567971E-1,8.929472417E-2,5.532801896E-2,5.123413480E-1
1.224255158E1,-4.823153317E-1,8.567123115E-2,5.635493621E-2,4.930958506E-1
1.225259158E1,-4.655126035E-1,8.600182086E-2,5.968354642E-2,4.771377400E-1
1.226263058E1,-4.488641024E-1,8.377435803E-2,5.957622081E-2,4.604850177E-1
1.227266958E1,-4.317443073E-1,8.202511817E-2,6.042202562E-2,4.436012715E-1
1.228270858E1,-4.141501486E-1,7.979605347E-2,5.927260220E-2,4.259119594E-1
1.229274758E1,-3.958768547E-1,7.757311314E-2,5.753489211E-2,4.074878351E-1
1.230278658E1,-3.779820204E-1,7.437652349E-2,5.603180453E-2,3.892837501E-1
1.231282658E1,-3.590708077E-1,7.318629324E-2,5.022190139E-2,3.698787880E-1
1.232286558E1,-3.406654298E-1,7.022832334E-2,4.486308619E-2,3.507102066E-1
1.233290458E1,-3.206595480E-1,6.840344518E-2,3.796875104E-2,3.300654528E-1
1.234294358E1,-3.023676276E-1,6.462308764E-2,3.189328313E-2,3.108367855E-1
1.235298258E1,-2.852040827E-1,6.430934370E-2,2.721526474E-2,2.936285598E-1
1.236302158E1,-2.689851820E-1,5.893481523E-2,2.056748047E-2,2.761328699E-1
1.237306058E1,-2.518828511E-1,5.948762596E-2,1.296699978E-2,2.591368199E-1
1.238310058E1,-2.294348180E-1,5.769319087E-2,6.994861644E-3,2.366807303E-1
1.239313958E1,-2.125449628E-1,5.537812412E-2,-3.454922698E-4,2.196411100E-1
1.240317858E1,-1.956970096E-1,5.185689405E-2,-8.290501311E-3,2.026208021E-1
1.241321758E1,-1.771764159E-1,4.937805980E-2,-1.285146177E-2,1.843768836E-1
1.242325658E1,-1.578767598E-1,4.751305282E-2,-1.924491301E-2,1.659907472E-1
1.243329558E1,-1.388172954E-1,4.455930740E-2,-2.516662888E-2,1.479497638E-1
1.244333458E1,-1.216593534E-1,4.252412170E-2,-3.061172739E-2,1.324627383E-1
1.245337358E1,-1.040281281E-1,3.752872348E-2,-3.243544698E-2,1.152489251E-1
1.246341358E1,-8.301658183E-2,3.730421513E-2,-3.801343590E-2,9.863254349E-2
1.247345258E1,-6.614349782E-2,3.430360183E-2,-3.906196356E-2,8.412809519E-2
1.248349158E1,-4.862175509E-2,3.107638285E-2,-4.231661558E-2,7.155775705E-2
1.249353058E1,-2.925676852E-2,2.810297534E-2,-4.299419746E-2,5.911206935E-2
1.250356958E1,-7.706736214E-3,2.561584860E-2,-4.539477080E-2,5.269013853E-2
1.251360858E1,1.289548725E-2,2.259632573E-2,-4.717260599E-2,5.387153500E-2
1.252364758E1,3.492462263E-2,1.805723459E-2,-5.117321014E-2,6.453286312E-2
1.253368758E1,5.617069080E-2,1.502073929E-2,-4.995165020E-2,7.665465721E-2
1.254372658E1,7.763283700E-2,1.102599688E-2,-5.331948400E-2,9.482297908E-2
1.255376558E1,9.716779739E-2,7.383444812E-3,-5.526114628E-2,1.120262933E-1
1.256380458E1,1.174277961E-1,2.077362500E-3,-5.570642650E-2,1.299877252E-1
1.257384358E1,1.365967691E-1,-1.013167202E-3,-5.740657076E-2,1.481729334E-1
1.258388258E1,1.597164571E-1,-4.401774146E-3,-5.686914176E-2,1.695960541E-1
1.259392158E1,1.826064885E-1,-1.046282239E-2,-5.612162501E-2,1.913223382E-1
1.260396158E1,2.025623620E-1,-1.247164607E-2,-5.216097087E-2,2.095419274E-1
1.261400058E1,2.285171598E-1,-1.524931192E-2,-4.929455370E-2,2.342703286E-1
1.262403958E1,2.499132603E-1,-1.866188645E-2,-4.570674524E-2,2.547430279E-1
1.263407858E1,2.726475298E-1,-2.476670034E-2,-4.128299281E-2,2.768652208E-1
1.264411758E1,2.915240228E-1,-2.904853038E-2,-3.523175791E-2,2.950785485E-1
1.265415658E1,3.123252392E-1,-3.067324683E-2,-2.940855548E-2,3.152027383E-1
1.266419558E1,3.314225078E-1,-3.525361419E-2,-2.266090363E-2,3.340616897E-1
1.267423558E1,3.535163701E-1,-4.399839789E-2,-1.598959602E-2,3.566025099E-1
1.268427458E1,3.693437874E-1,-2.251201868E-2,-8.689871058E-3,3.701312445E-1
1.269431358E1,3.858079314E-1,-5.288656428E-2,-6.743927952E-4,3.894164910E-1
1.270435258E1,4.026761353E-1,-5.346420407E-2,7.239456754E-3,4.062744156E-1
1.271439158E1,4.166017473E-1,-6.149338931E-2,1.183595508E-2,4.212820226E-1
1.272443058E1,4.336896539E-1,-5.790664256E-2,1.101144031E-2,4.376769893E-1
1.273446958E1,4.526737332E-1,-4.866816103E-2,1.878095791E-2,4.556696424E-1
1.274450958E1,4.693467021E-1,-6.343485415E-2,2.460103109E-2,4.742525891E-1
1.275454858E1,4.806373119E-1,-6.209566817E-2,2.645641193E-2,4.853535200E-1
1.276458758E1,4.974256158E-1,-8.342173696E-2,2.490512095E-2,5.049868261E-1
1.277462658E1,5.132599473E-1,-6.543937325E-2,2.546959370E-2,5.180412969E-1
1.278466558E1,5.207532644E-1,-6.251735985E-2,2.608744614E-2,5.251408740E-1
1.279470458E1,5.300570130E-1,-9.088691324E-2,2.371847443E-2,5.383153668E-1
1.280474358E1,5.402886271E-1,-6.300202012E-2,2.529080398E-2,5.445371245E-1
1.281478358E1,5.511353016E-1,-9.666812420E-2,2.319211513E-2,5.600292145E-1
1.282482258E1,5.552834272E-1,-8.301915973E-2,2.221873030E-2,5.618945964E-1
1.283486158E1,5.635969043E-1,-6.606593728E-2,2.540987730E-2,5.680245069E-1
1.284490058E1,5.767095089E-1,-1.016721353E-1,2.804241143E-2,5.862742171E-1
1.285493958E1,5.842516422E-1,-9.052266181E-2,3.088835999E-2,5.920290741E-1
1.286497858E1,5.895398855E-1,-9.020654857E-2,3.028408810E-2,5.971696777E-1
1.287501758E1,5.942090154E-1,-9.692919254E-2,3.248700500E-2,6.029386601E-1
1.288505758E1,5.994775891E-1,-8.547440171E-2,3.299007565E-2,6.064384539E-1
1.289509658E1,6.059923172E-1,-8.597727120E-2,3.310817480E-2,6.129558964E-1
1.290513558E1,6.162433028E-1,-9.103594720E-2,3.833196685E-2,6.241095189E-1
1.291517458E1,6.214466691E-1,-9.446018189E-2,3.818178549E-2,6.297432312E-1
1.292521358E1,6.254739165E-1,-9.543196857E-2,3.959139809E-2,6.339498085E-1
1.293525258E1,6.317487359E-1,-1.011789888E-1,3.680054471E-2,6.408571863E-1
1.294529158E1,6.385395527E-1,-9.948869050E-2,3.294189274E-2,6.470826286E-1
1.295533058E1,6.455268264E-1,-1.036561280E-1,3.060459718E-2,6.545121220E-1
1.296537058E1,6.498616338E-1,-1.052159443E-1,2.438398451E-2,6.587754676E-1
1.297540958E1,6.545207500E-1,-1.049648821E-1,2.208299749E-2,6.632516095E-1
1.298544858E1,6.610356569E-1,-1.083356440E-1,1.553241909E-2,6.700343331E-1
1.299548758E1,6.665942669E-1,-1.066177711E-1,1.131407544E-2,6.751616651E-1
1.300552658E1,6.714066267E-1,-1.070923433E-1,7.430388127E-3,6.799344373E-1
1.301556558E1,6.759166121E-1,-1.077000871E-1,2.983583137E-3,6.844497623E-1
1.302560458E1,6.791377068E-1,-1.065666452E-1,-8.449773304E-4,6.874483170E-1
1.303564458E1,6.825073361E-1,-1.057695299E-1,-5.305064842E-3,6.906747433E-1
1.304568358E1,6.842834353E-1,-1.075386629E-1,-9.067312814E-3,6.927413659E-1
1.305572258E1,6.847099066E-1,-1.059314460E-1,-1.364622265E-2,6.929901491E-1
1.306576158E1,6.842288971E-1,-1.058233231E-1,-1.527234912E-2,6.925323126E-1
1.307580058E1,6.836994290E-1,-1.052367911E-1,-1.532181725E-2,6.919208405E-1
1.308583958E1,6.864635348E-1,-1.081042141E-1,-1.920790039E-2,6.951889306E-1
1.309587858E1,6.839905977E-1,-1.046953201E-1,-2.048246376E-2,6.922599072E-1
1.310591858E1,6.821902990E-1,-9.674152732E-2,-1.876286231E-2,6.892710441E-1
1.311595758E1,6.796754599E-1,-1.025245786E-1,-2.035596408E-2,6.876658965E-1
1.312599658E1,6.753811240E-1,-1.071765870E-1,-1.927578636E-2,6.841038221E-1
1.313603558E1,6.708428264E-1,-9.598891437E-2,-1.872770861E-2,6.779341387E-1
1.314607458E1,6.639689207E-1,-9.720730782E-2,-1.762356237E-2,6.712783166E-1
1.315611358E1,6.592534184E-1,-1.035709456E-1,-2.031794004E-2,6.676487319E-1
1.316615258E1,6.508958936E-1,-8.977551013E-2,-1.941832528E-2,6.573447937E-1
1.317619258E1,6.411641836E-1,-9.629064798E-2,-1.985470019E-2,6.486583140E-1
1.318623158E1,6.325605512E-1,-9.812050313E-2,-2.055191621E-2,6.404552016E-1
1.319627058E1,6.234964132E-1,-7.655271888E-2,-2.367434092E-2,6.286243477E-1
1.320630958E1,6.153007746E-1,-9.415248036E-2,-2.890212648E-2,6.231332648E-1
1.321634858E1,6.000732780E-1,-7.889448106E-2,-2.905528434E-2,6.059343922E-1
1.322638758E1,5.840829015E-1,-8.351160586E-2,-3.152723238E-2,5.908646127E-1
1.323642658E1,5.674045086E-1,-8.591344953E-2,-3.406274319E-2,5.748819598E-1
1.324646658E1,5.573194027E-1,-6.372718513E-2,-3.470536321E-2,5.620236054E-1
1.325650558E1,5.418570638E-1,-8.352585137E-2,-3.668135405E-2,5.494826359E-1
1.326654458E1,5.257318616E-1,-5.967590958E-2,-3.731890768E-2,5.304223839E-1
1.327658358E1,5.053535700E-1,-7.194132358E-2,-3.904972970E-2,5.119401001E-1
1.328662258E1,4.878544509E-1,-6.271054596E-2,-3.572397679E-2,4.931640502E-1
1.329666158E1,4.701304734E-1,-6.348839402E-2,-3.449656442E-2,4.756505557E-1
1.330670058E1,4.533259273E-1,-5.680465326E-2,-3.027492017E-2,4.578730564E-1
1.331674067E1,4.365747571E-1,-5.712325871E-2,-2.623024955E-2,4.410766500E-1
1.332677967E1,4.183166623E-1,-4.671882093E-2,-2.203869820E-2,4.214939886E-1
1.333681867E1,4.016894996E-1,-4.579718038E-2,-1.852846332E-2,4.047161225E-1
1.334685767E1,3.849169314E-1,-3.905458748E-2,-1.251930557E-2,3.870956444E-1
1.335689667E1,3.658596277E-1,-4.194630682E-2,-7.842082530E-3,3.683398677E-1
1.336693567E1,3.490878344E-1,-4.401451722E-2,-4.839901812E-3,3.518849506E-1
1.337697467E1,3.292072117E-1,-3.702712432E-2,-1.696077408E-3,3.312872966E-1
1.338701467E1,3.149747550E-1,-2.767942846E-2,1.482138876E-3,3.161920995E-1
1.339705367E1,2.973605394E-1,-3.024833463E-2,2.463931218E-3,2.989052076E-1
1.340709267E1,2.788552940E-1,-2.602536045E-2,4.280473106E-3,2.800998337E-1
1.341713167E1,2.659104764E-1,-1.694911905E-2,5.403714254E-3,2.665048860E-1
1.342717067E1,2.488361597E-1,-2.099525928E-2,4.914491437E-3,2.497686680E-1
1.343720967E1,2.327256948E-1,-9.477492422E-3,6.801977288E-3,2.330178937E-1
1.344724867E1,2.172881514E-1,-1.159870066E-2,8.935702965E-3,2.177808930E-1
1.345728767E1,1.978398114E-1,-8.465323597E-3,1.220826618E-2,1.983968106E-1
1.346732767E1,1.836771220E-1,-4.668454640E-3,1.585919410E-2,1.844196130E-1
1.347736667E1,1.668279171E-1,-1.003108919E-3,1.495037042E-2,1.674994738E-1
1.348740567E1,1.481120139E-1,3.454756457E-3,1.894804090E-2,1.493590716E-1
1.349744467E1,1.323770732E-1,5.609608255E-3,2.191172726E-2,1.342954988E-1
1.350748367E1,1.143309548E-1,1.023791637E-2,2.319377288E-2,1.171082118E-1
1.351752267E1,9.722304344E-2,1.322576776E-2,2.551061846E-2,1.013806331E-1
1.352756167E1,7.802058756E-2,1.446786709E-2,2.726777270E-2,8.390508143E-2
1.353760167E1,6.152431667E-2,2.177194133E-2,3.053853847E-2,7.205457170E-2
1.354764067E1,4.523349926E-2,2.315944806E-2,3.082083352E-2,5.943360386E-2
1.355767967E1,2.574249357E-2,2.611327916E-2,3.038678318E-2,4.762285078E-2
1.356771867E1,7.387721445E-3,3.007845953E-2,3.084617853E-2,4.371245687E-2
1.357775767E1,-1.295668073E-2,3.046776354E-2,2.955198102E-2,4.437882122E-2
1.358779667E1,-3.302812576E-2,3.616932407E-2,2.979086526E-2,5.732863811E-2
1.359783567E1,-5.293291435E-2,3.784860671E-2,2.753985301E-2,7.066012988E-2
1.360787567E1,-7.330023497E-2,4.148328677E-2,2.629855275E-2,8.823492169E-2
1.361791467E1,-9.597928822E-2,4.393106699E-2,2.434446663E-2,1.083264302E-1
1.362795367E1,-1.163167879E-1,4.744271189E-2,2.222139388E-2,1.275703586E-1
1.363799267E1,-1.393261105E-1,5.033214390E-2,1.959653199E-2,1.494292938E-1
1.364803167E1,-1.604673564E-1,5.516604707E-2,1.799224317E-2,1.706364148E-1
1.365807067E1,-1.840804219E-1,5.540508032E-2,1.378253847E-2,1.927311159E-1
1.366810967E1,-2.076424658E-1,5.893696472E-2,9.721217677E-3,2.160635589E-1
1.367814867E1,-2.321043611E-1,6.233134866E-2,6.925086025E-3,2.404279274E-1
1.368818867E1,-2.558642626E-1,6.353163719E-2,5.215337034E-3,2.636853988E-1
1.369822767E1,-2.781397104E-1,6.805144995E-2,2.748464234E-3,2.863568620E-1
1.370826667E1,-2.989177108E-1,6.748845428E-2,1.190248877E-3,3.064439687E-1
1.371830567E1,-3.227211833E-1,7.179762423E-2,-9.822263382E-4,3.306128034E-1
1.372834467E1,-3.428019583E-1,7.397741824E-2,-2.658952493E-3,3.507034517E-1
1.373838367E1,-3.631129861E-1,7.357337326E-2,-5.575526506E-3,3.705336266E-1
1.374842267E1,-3.858494461E-1,7.870155573E-2,-7.555320393E-3,3.938664910E-1
1.375846267E1,-4.067101479E-1,7.893255353E-2,-9.934275411E-3,4.144178835E-1
1.376850167E1,-4.259466827E-1,8.087772131E-2,-1.220888086E-2,4.337289927E-1
1.377854067E1,-4.443329871E-1,7.887221873E-2,-1.253267564E-2,4.514528749E-1
1.378857967E1,-4.622898996E-1,8.100381494E-2,-1.376625150E-2,4.695349603E-1
1.379861867E1,-4.779994786E-1,8.275285363E-2,-1.710456982E-2,4.854112716E-1
1.380865767E1,-4.923787117E-1,8.688954264E-2,-2.044603974E-2,5.004044653E-1
1.381869667E1,-5.038592815E-1,8.963606507E-2,-2.364822291E-2,5.123163458E-1
1.382873667E1,-5.176371336E-1,8.737663925E-2,-2.746000700E-2,5.256775924E-1
1.383877567E1,-5.298331380E-1,8.114273846E-2,-3.191183507E-2,5.369596478E-1
1.384881467E1,-5.421633124E-1,9.046886116E-2,-3.424529731E-2,5.507253513E-1
1.385885367E1,-5.543251038E-1,9.085740894E-2,-3.810853511E-2,5.630130104E-1
1.386889267E1,-5.646123290E-1,9.039694816E-2,-4.380211234E-2,5.734782606E-1
1.387893167E1,-5.708178878E-1,9.247776121E-2,-4.694050923E-2,5.801625710E-1
1.388897067E1,-5.772020221E-1,9.588021785E-2,-4.951631650E-2,5.872027385E-1
1.389900967E1,-5.840924382E-1,9.204783291E-2,-4.779531434E-2,5.932294430E-1
1.390904967E1,-5.884283781E-1,1.026733145E-1,-4.772740230E-2,5.992225552E-1
1.391908867E1,-5.956885815E-1,8.935821056E-2,-4.558221251E-2,6.040757519E-1
1.392912767E1,-6.010311842E-1,9.212683141E-2,-4.408152401E-2,6.096466339E-1
1.393916667E1,-6.109874845E-1,9.514042735E-2,-4.369095340E-2,6.198921733E-1
1.394920567E1,-6.164618731E-1,8.196177334E-2,-3.662505373E-2,6.229641786E-1
1.395924467E1,-6.228036880E-1,8.882402629E-2,-3.229866922E-2,6.299343978E-1
1.396928367E1,-6.228013039E-1,9.801778942E-2,-2.460879274E-2,6.309473384E-1
1.397932367E1,-6.272302270E-1,8.093791455E-2,-1.998291537E-2,6.327464110E-1
1.398936267E1,-6.305953860E-1,8.272276074E-2,-1.576420106E-2,6.361934502E-1
1.399940167E1,-6.347489357E-1,9.697385132E-2,-1.296453550E-2,6.422446718E-1
1.400944067E1,-6.355884075E-1,9.029890597E-2,-8.297346532E-3,6.420244249E-1
1.401947967E1,-6.384972930E-1,6.546324492E-2,-8.809285238E-3,6.419048474E-1
1.402951867E1,-6.399492621E-1,6.838260591E-2,-9.565089829E-3,6.436635222E-1
1.403955767E1,-6.446538568E-1,8.774606884E-2,-1.253029797E-2,6.507188148E-1
1.404959767E1,-6.493852735E-1,9.030696005E-2,-1.295746956E-2,6.557625153E-1
1.405963667E1,-6.526105404E-1,8.999413252E-2,-1.225659810E-2,6.589003608E-1
1.406967567E1,-6.525223851E-1,8.439856768E-2,-1.271173172E-2,6.580806709E-1
1.407971467E1,-6.540668011E-1,6.521803141E-2,-1.383630559E-2,6.574558656E-1
1.408975367E1,-6.577385068E-1,5.733960122E-2,-1.345307566E-2,6.603701677E-1
1.409979267E1,-6.625509262E-1,6.654354930E-2,-1.622507721E-2,6.660818470E-1
1.410983167E1,-6.645991206E-1,7.677593827E-2,-1.506074332E-2,6.691885846E-1
1.411987067E1,-6.683185697E-1,8.579498529E-2,-9.863701649E-3,6.738751981E-1
1.412991067E1,-6.664862633E-1,8.113285154E-2,-1.351706218E-3,6.714077046E-1
1.413994967E1,-6.663618684E-1,6.980495900E-2,6.335346028E-3,6.700380650E-1
1.414998867E1,-6.680090427E-1,5.825669318E-2,1.523909159E-2,6.707176406E-1
1.416002767E1,-6.701882482E-1,5.255731195E-2,2.076677606E-2,6.725665900E-1
1.417006667E1,-6.703192592E-1,5.344574526E-2,2.511784807E-2,6.729154948E-1
1.418010567E1,-6.663150191E-1,5.391321704E-2,2.848315239E-2,6.690991180E-1
1.419014467E1,-6.635267138E-1,5.444851518E-2,2.880273387E-2,6.663797253E-1
1.420018467E1,-6.594610810E-1,5.417881161E-2,3.102215007E-2,6.624097182E-1
1.421022367E1,-6.545310616E-1,5.009006336E-2,2.859201282E-2,6.570672936E-1
1.422026267E1,-6.497426629E-1,4.801599309E-2,2.812116593E-2,6.521210498E-1
1.423030167E1,-6.440176964E-1,4.770094156E-2,2.569848858E-2,6.462929563E-1
1.424034067E1,-6.360588670E-1,4.728091508E-2,2.233835310E-2,6.382048019E-1
1.425037967E1,-6.250017285E-1,4.819864035E-2,2.104032785E-2,6.272104631E-1
1.426041867E1,-6.157783270E-1,3.975438327E-2,2.039124444E-2,6.173970860E-1
1.427045867E1,-6.047019958E-1,3.494631127E-2,1.911265962E-2,6.060124109E-1
1.428049767E1,-5.910516977E-1,3.784931451E-2,1.954330690E-2,5.925846951E-1
1.429053667E1,-5.773052573E-1,2.950296924E-2,1.856858842E-2,5.783567911E-1
1.430057567E1,-5.627591014E-1,2.234460786E-2,1.952437311E-2,5.635408493E-1
1.431061429E1,-5.492768288E-1,2.489431947E-2,2.030920610E-2,5.502156174E-1
1.432065329E1,-5.358450413E-1,2.484668791E-2,2.127536759E-2,5.368425350E-1
1.433069229E1,-5.208982825E-1,1.904952154E-2,2.487729304E-2,5.218398075E-1
1.434073129E1,-5.031532049E-1,1.602850854E-2,2.661428601E-2,5.041114767E-1
1.435077129E1,-4.851155579E-1,1.009338722E-2,2.815492265E-2,4.860367071E-1
1.436081029E1,-4.682613909E-1,9.234430268E-3,2.693852037E-2,4.691265169E-1
1.437084929E1,-4.502581358E-1,5.243683234E-3,2.782694995E-2,4.511476745E-1
1.438088829E1,-4.323621690E-1,1.519300975E-3,2.861154452E-2,4.333104822E-1
1.439092729E1,-4.144353569E-1,2.114517149E-3,2.959505096E-2,4.154960929E-1
1.440096629E1,-3.958683014E-1,-1.358037814E-3,2.675470524E-2,3.967737020E-1
1.441100529E1,-3.776820898E-1,-4.254492000E-3,2.565082535E-2,3.785760511E-1
1.442104529E1,-3.568397462E-1,-7.857236080E-3,2.089190483E-2,3.575371482E-1
1.443108429E1,-3.387768567E-1,-8.627687581E-3,1.910172775E-2,3.394246184E-1
1.444112329E1,-3.198438287E-1,-1.198194828E-2,1.729391702E-2,3.205350549E-1
1.445116229E1,-3.008440435E-1,-1.553939935E-2,1.592984609E-2,3.016659932E-1
1.446120129E1,-2.813744843E-1,-1.806481555E-2,1.343294978E-2,2.822735944E-1
1.447124029E1,-2.619488537E-1,-2.089309320E-2,1.051199436E-2,2.629909225E-1
1.448127929E1,-2.410874665E-1,-2.508774027E-2,7.142758928E-3,2.424944952E-1
1.449131929E1,-2.241162062E-1,-2.722199634E-2,3.467063420E-3,2.257900163E-1
1.450135829E1,-2.069531977E-1,-2.819538116E-2,-1.076022862E-3,2.088678132E-1
1.451139729E1,-1.893795282E-1,-3.095814586E-2,-6.790900137E-3,1.920133558E-1
1.452143629E1,-1.704941541E-1,-3.385597095E-2,-1.157124061E-2,1.742078556E-1
1.453147529E1,-1.534299552E-1,-3.596998751E-2,-1.909094304E-2,1.587421030E-1
1.454151429E1,-1.376078278E-1,-3.721797466E-2,-2.494021691E-2,1.447173325E-1
1.455155329E1,-1.202719882E-1,-4.032535106E-2,-2.792668529E-2,1.298898951E-1
1.456159229E1,-1.040685847E-1,-4.397498444E-2,-3.299985453E-2,1.176990229E-1
1.457163229E1,-8.762943000E-2,-4.263301939E-2,-3.725798428E-2,1.043295200E-1
1.458167129E1,-7.050476223E-2,-4.411030561E-2,-4.034902155E-2,9.243746047E-2
1.459171029E1,-5.318036675E-2,-4.607465118E-2,-4.066940024E-2,8.127130494E-2
1.460174929E1,-3.543763235E-2,-4.891983420E-2,-3.994406015E-2,7.241894714E-2
1.461178829E1,-1.957824454E-2,-5.017631501E-2,-3.815015405E-2,6.600306433E-2
1.462182729E1,-1.242307830E-3,-5.065377057E-2,-3.840525821E-2,6.357917630E-2
1.463186629E1,1.890184358E-2,-5.421547964E-2,-3.540973738E-2,6.745700427E-2
1.464190629E1,3.740846366E-2,-5.360362679E-2,-3.535450250E-2,7.431475496E-2
1.465194529E1,5.969565734E-2,-5.600818992E-2,-3.429057077E-2,8.874870189E-2
1.466198429E1,7.694917917E-2,-5.578570813E-2,-3.707145900E-2,1.020172264E-1
1.467202329E1,9.710344672E-2,-5.827096850E-2,-3.918734193E-2,1.198341892E-1
1.468206229E1,1.149786860E-1,-5.804650858E-2,-4.118760675E-2,1.352254205E-1
1.469210129E1,1.324306428E-1,-6.063243374E-2,-4.413865507E-2,1.521919448E-1
1.470214029E1,1.511613429E-1,-6.365002692E-2,-4.565562680E-2,1.702513253E-1
1.471217929E1,1.739740074E-1,-6.441195309E-2,-4.465081543E-2,1.908128671E-1
1.472221929E1,1.938629299E-1,-6.331582367E-2,-4.692207277E-2,2.092687508E-1
1.473225829E1,2.152505070E-1,-6.707140803E-2,-4.417582229E-2,2.297452019E-1
1.474229729E1,2.388971299E-1,-6.573015451E-2,-4.481218010E-2,2.517944069E-1
1.475233629E1,2.607124150E-1,-6.710354984E-2,-4.144781083E-2,2.723816638E-1
1.476237529E1,2.807120085E-1,-6.672763824E-2,-3.506144509E-2,2.906563509E-1
1.477241429E1,3.020471036E-1,-7.599118352E-2,-3.186325356E-2,3.130852595E-1
1.478245329E1,3.226844966E-1,-7.280761003E-2,-2.449730970E-2,3.317022017E-1
1.479249329E1,3.410978615E-1,-6.661176682E-2,-1.779306866E-2,3.479963677E-1
1.480253229E1,3.606202304E-1,-7.696183026E-2,-1.108107809E-2,3.689076635E-1
1.481257129E1,3.832730651E-1,-7.643798739E-2,-6.870886777E-3,3.908813342E-1
1.482261029E1,4.033414125E-1,-7.445506006E-2,-1.478925580E-3,4.101585526E-1
1.483264929E1,4.180990756E-1,-7.913876325E-2,4.349135794E-3,4.255451748E-1
1.484268829E1,4.373261631E-1,-7.620625943E-2,6.611275952E-3,4.439653994E-1
1.485272729E1,4.543048739E-1,-7.093106955E-2,1.004622132E-2,4.599185381E-1
1.486276629E1,4.675495625E-1,-7.664882392E-2,1.008740254E-2,4.738980811E-1
1.487280629E1,4.815303683E-1,-7.707493007E-2,1.138436235E-2,4.877926241E-1
1.488284529E1,4.934661090E-1,-8.206116408E-2,1.363073848E-2,5.004284489E-1
1.489288429E1,5.089728832E-1,-7.013846189E-2,1.421423629E-2,5.139794200E-1
1.490292329E1,5.204959512E-1,-7.235981524E-2,1.369459741E-2,5.256800548E-1
1.491296229E1,5.337443948E-1,-7.823847979E-2,1.225329377E-2,5.395873255E-1
1.492300129E1,5.449585319E-1,-6.825394928E-2,1.345532015E-2,5.493809686E-1
1.493304029E1,5.537526011E-1,-6.888139248E-2,1.447504386E-2,5.582079509E-1
1.494308029E1,5.609874725E-1,-6.914890558E-2,1.626233757E-2,5.654670451E-1
1.495311929E1,5.710992217E-1,-6.502180547E-2,1.811935939E-2,5.750743147E-1
1.496315829E1,5.787476897E-1,-6.736168265E-2,1.749745198E-2,5.829173573E-1
1.497319729E1,5.868175626E-1,-6.708231568E-2,1.806230843E-2,5.909155065E-1
1.498323629E1,5.932603478E-1,-6.426323205E-2,1.766506955E-2,5.969921758E-1
1.499327529E1,5.988652110E-1,-6.175161153E-2,1.824217662E-2,6.023168431E-1
1.500331429E1,6.071114540E-1,-5.889235809E-2,2.114563622E-2,6.103275886E-1
1.501335329E1,6.105304360E-1,-6.203116104E-2,2.367350832E-2,6.141300459E-1
1.502339329E1,6.140961647E-1,-5.796310306E-2,2.595044300E-2,6.173712386E-1
1.503343229E1,6.204334497E-1,-5.460885167E-2,2.689826302E-2,6.234126312E-1
1.504347129E1,6.248524189E-1,-5.362438411E-2,2.841281518E-2,6.277924880E-1
1.505351029E1,6.308458447E-1,-5.203501135E-2,2.833718061E-2,6.336222203E-1
1.506354929E1,6.359948516E-1,-4.986082017E-2,2.790051140E-2,6.385561770E-1
1.507358829E1,6.397983432E-1,-4.916999862E-2,2.769544907E-2,6.422823729E-1
1.508362729E1,6.430463195E-1,-4.548870027E-2,2.607748844E-2,6.451804602E-1
1.509366629E1,6.482443213E-1,-4.343246669E-2,2.375041880E-2,6.501316495E-1
1.510370629E1,6.502375603E-1,-4.341280088E-2,1.926808432E-2,6.519699496E-1
1.511374529E1,6.548714638E-1,-4.137921333E-2,1.156036370E-2,6.562792968E-1
1.512378429E1,6.573042870E-1,-3.826002032E-2,8.150381967E-3,6.584672988E-1
1.513382329E1,6.600803733E-1,-3.909145668E-2,-7.110203151E-4,6.612372847E-1
1.514386229E1,6.620321274E-1,-3.656271100E-2,-6.004503928E-3,6.630681892E-1
1.515390129E1,6.636966467E-1,-3.619306162E-2,-1.112815924E-2,6.647759115E-1
1.516394029E1,6.635754108E-1,-3.435042873E-2,-1.791569777E-2,6.647053859E-1
1.517398029E1,6.662518978E-1,-3.035622090E-2,-2.195437998E-2,6.673043431E-1
1.518401929E1,6.663222313E-1,-2.896548063E-2,-2.579800971E-2,6.674502620E-1
1.519405829E1,6.665475368E-1,-2.456726879E-2,-2.732107043E-2,6.675594434E-1
1.520409729E1,6.649652719E-1,-2.379229851E-2,-2.853540890E-2,6.660023693E-1
1.521413629E1,6.641109586E-1,-2.291745134E-2,-2.754285000E-2,6.650768252E-1
1.522417529E1,6.608076096E-1,-2.193917148E-2,-2.628857270E-2,6.616941236E-1
1.523421429E1,6.582916975E-1,-1.570204832E-2,-2.556605637E-2,6.589750652E-1
1.524425329E1,6.510233283E-1,-2.044039406E-2,-2.531015128E-2,6.518357059E-1
1.525429329E1,6.466056705E-1,-1.821292751E-2,-2.478471026E-2,6.473367637E-1
1.526433229E1,6.423855424E-1,-6.449094042E-3,-2.320567705E-2,6.428368995E-1
1.527437129E1,6.384443045E-1,-1.738296822E-2,-2.631704882E-2,6.392228755E-1
1.528441029E1,6.322505474E-1,-2.918089740E-3,-2.729968354E-2,6.328463816E-1
1.529444929E1,6.240746379E-1,-1.168947760E-2,-3.190721944E-2,6.249990946E-1
1.530448829E1,6.160552502E-1,-4.179399461E-3,-3.591725603E-2,6.171155385E-1
1.531452708E1,6.061496139E-1,-6.051069126E-3,-4.009948298E-2,6.075046818E-1
1.532456708E1,5.956816077E-1,-3.257909790E-3,-4.521689564E-2,5.974041843E-1
1.533460608E1,5.794211626E-1,-5.153280683E-3,-5.003482103E-2,5.816003123E-1
1.534464508E1,5.723817348E-1,-2.519925125E-3,-5.675374344E-2,5.751940436E-1
1.535468408E1,5.551342964E-1,5.607509986E-3,-6.335252523E-2,5.587656697E-1
1.536472308E1,5.404083729E-1,1.287553087E-2,-6.269863248E-2,5.441857287E-1
1.537476208E1,5.276278853E-1,2.286132053E-2,-6.196705997E-2,5.317459373E-1
1.538480108E1,5.120748878E-1,1.444678754E-2,-6.025511771E-2,5.158101197E-1
1.539484008E1,4.967479110E-1,1.467928104E-2,-5.454982817E-2,4.999496496E-1
1.540488008E1,4.773569107E-1,1.359265298E-2,-4.711782932E-2,4.798692220E-1
1.541491908E1,4.644565582E-1,1.621613279E-2,-4.243599251E-2,4.666729807E-1
1.542495808E1,4.436053038E-1,1.851487532E-2,-3.739748895E-2,4.455637309E-1
1.543499708E1,4.284114242E-1,2.929508314E-2,-3.092494048E-2,4.305239856E-1
1.544503608E1,4.125650525E-1,3.571314365E-2,-2.754753083E-2,4.150231531E-1
1.545507508E1,3.953232169E-1,2.760808170E-2,-2.145768330E-2,3.968665823E-1
1.546511408E1,3.748933375E-1,3.237716109E-2,-1.554065850E-2,3.766096217E-1
1.547515408E1,3.591077328E-1,2.245608717E-2,-1.220504940E-2,3.600161147E-1
1.548519308E1,3.417578340E-1,1.981475390E-2,-1.452818234E-2,3.426399125E-1
1.549523208E1,3.188085854E-1,3.272283077E-2,-1.322030369E-2,3.207560977E-1
1.550527108E1,2.969416082E-1,3.843006119E-2,-1.569083706E-2,2.998289356E-1
1.551531008E1,2.805868685E-1,2.956839278E-2,-1.661388949E-2,2.826292659E-1
1.552534908E1,2.598107457E-1,4.146955907E-2,-1.766300201E-2,2.636917321E-1
1.553538808E1,2.442568243E-1,5.293100327E-2,-1.878073066E-2,2.506308105E-1
1.554542708E1,2.312822640E-1,4.219232872E-2,-1.580896601E-2,2.356302223E-1
1.555546708E1,2.090214342E-1,4.640997946E-2,-1.547474042E-2,2.146702442E-1
1.556550608E1,1.955792159E-1,3.566890582E-2,-1.217407640E-2,1.991775807E-1
1.557554508E1,1.799896061E-1,4.146074876E-2,-1.148271933E-2,1.850597332E-1
1.558558408E1,1.588480175E-1,4.419073462E-2,-7.094744593E-3,1.650328727E-1
1.559562308E1,1.425100565E-1,4.259816557E-2,-2.666655928E-4,1.487406838E-1
1.560566208E1,1.256897449E-1,4.352378100E-2,2.044494729E-3,1.330278597E-1
1.561570108E1,1.101432741E-1,4.783996940E-2,7.401976269E-3,1.203120640E-1
1.562574008E1,9.445116669E-2,4.618258774E-2,1.444551814E-2,1.061250550E-1
1.563578008E1,7.545723766E-2,4.588324949E-2,1.884132996E-2,9.029985058E-2
1.564581908E1,5.693599209E-2,4.674804211E-2,2.326225862E-2,7.725425110E-2
1.565585808E1,3.967657685E-2,4.571260512E-2,2.558852918E-2,6.571640467E-2
1.566589708E1,2.294683084E-2,4.473133758E-2,2.766764723E-2,5.738421656E-2
1.567593608E1,4.635469057E-3,4.594147950E-2,2.746365033E-2,5.372484716E-2
1.568597508E1,-1.451530866E-2,4.468281940E-2,2.684668824E-2,5.411093424E-2
1.569601408E1,-3.123703040E-2,4.365084320E-2,2.821848169E-2,6.064182459E-2
1.570605408E1,-4.622304067E-2,4.548298195E-2,2.552917600E-2,6.969225181E-2
1.571609308E1,-6.502310187E-2,4.393541813E-2,2.467217110E-2,8.226202507E-2
1.572613208E1,-8.344773203E-2,4.517086968E-2,2.300083078E-2,9.763692778E-2
1.573617108E1,-1.041567400E-1,4.611203074E-2,2.024365962E-2,1.156924873E-1
1.574621008E1,-1.237050816E-1,4.577147961E-2,1.615972258E-2,1.328875924E-1
1.575624908E1,-1.440857202E-1,4.412031919E-2,1.463719457E-2,1.513986288E-1
1.576628808E1,-1.657520086E-1,4.486058652E-2,1.087960135E-2,1.720597753E-1
1.577632708E1,-1.876650304E-1,4.428135604E-2,8.180754259E-3,1.929920383E-1
1.578636708E1,-2.090950757E-1,4.340259731E-2,7.497791201E-3,2.136837687E-1
1.579640608E1,-2.309598923E-1,4.122785851E-2,6.650106981E-3,2.347049895E-1
1.580644508E1,-2.506070733E-1,4.106506333E-2,5.804207642E-3,2.540156165E-1
1.581648408E1,-2.713528275E-1,4.345471784E-2,5.053462926E-3,2.748567027E-1
1.582652308E1,-2.959116101E-1,4.113559797E-2,5.789061543E-3,2.988132053E-1
1.583656208E1,-3.161415160E-1,3.957099095E-2,4.573594313E-3,3.186412390E-1
1.584660108E1,-3.396455944E-1,3.836698458E-2,4.185896367E-3,3.418313575E-1
1.585664108E1,-3.604249060E-1,3.608758375E-2,-1.000609715E-3,3.622284194E-1
1.586668008E1,-3.820189834E-1,3.461201489E-2,-3.046577564E-3,3.835958509E-1
1.587671908E1,-4.033807218E-1,3.386686370E-2,-5.941167474E-3,4.048435113E-1
1.588675808E1,-4.208946824E-1,2.377110720E-2,-1.046735980E-2,4.216953460E-1
1.589679708E1,-4.371506274E-1,3.425490484E-2,-1.593429781E-2,4.387800945E-1
1.590683608E1,-4.545070827E-1,2.544445917E-2,-1.892621815E-2,4.556120175E-1
