"Time (s)","Acceleration x (m/s^2)","Acceleration y (m/s^2)","Acceleration z (m/s^2)","Absolute acceleration (m/s^2)"
1.610561600E-2,2.595000155E-2,-1.189050078E0,9.706050873E0,9.778646994E0
2.089892400E-2,-7.050000131E-3,-1.206000090E0,9.721950531E0,9.796469162E0
2.569361600E-2,2.595000155E-2,-1.182000041E0,9.784950256E0,9.856117340E0
3.048569500E-2,2.100000158E-2,-1.179000020E0,9.780000687E0,9.850832223E0
3.527922200E-2,2.100000158E-2,-1.179000020E0,9.766050339E0,9.836982325E0
4.007268300E-2,2.805000171E-2,-1.177050114E0,9.787050247E0,9.857615651E0
4.486714500E-2,1.395000052E-2,-1.167000055E0,9.781949997E0,9.851326280E0
4.965946900E-2,3.795000166E-2,-1.171950102E0,9.778050423E0,9.848105265E0
5.445277500E-2,7.605000585E-2,-1.170000076E0,9.751049995E0,9.821286056E0
5.924623700E-2,6.900000572E-2,-1.183950067E0,9.739050865E0,9.810994369E0
6.404070200E-2,1.120500043E-1,-1.186050057E0,9.756000519E0,9.828469671E0
6.883301200E-2,6.599999964E-2,-1.195950031E0,9.790050507E0,9.863049295E0
7.362631800E-2,6.900000572E-2,-1.179000020E0,9.772950172E0,9.844051865E0
7.841977900E-2,1.069500074E-1,-1.201050043E0,9.756000519E0,9.830234261E0
8.321431800E-2,1.050000042E-1,-1.186050057E0,9.760950089E0,9.833304957E0
8.800655000E-2,1.189500093E-1,-1.210050106E0,9.768000603E0,9.843383876E0
9.279984200E-2,1.360500008E-1,-1.201050043E0,9.742050171E0,9.816749581E0
9.759330400E-2,1.170000061E-1,-1.179000020E0,9.754050255E0,9.825743047E0
1.023878420E-1,1.120500043E-1,-1.201050043E0,9.792000771E0,9.866020246E0
1.071800940E-1,9.000000358E-2,-1.194000006E0,9.778050423E0,9.851091619E0
1.119734000E-1,8.295000345E-2,-1.215000033E0,9.754050255E0,9.829781389E0
1.167668610E-1,8.595000207E-2,-1.206000090E0,9.757950783E0,9.832569710E0
1.215614040E-1,8.805000782E-2,-1.207950115E0,9.766050339E0,9.840865587E0
1.263537130E-1,8.595000207E-2,-1.213050008E0,9.748950005E0,9.824505276E0
1.311471730E-1,7.800000161E-2,-1.203000069E0,9.754050255E0,9.828264828E0
1.359404160E-1,5.205000192E-2,-1.201050043E0,9.757950783E0,9.831725886E0
1.407349520E-1,5.205000192E-2,-1.186050057E0,9.772950172E0,9.844794514E0
1.455272620E-1,7.050000131E-3,-1.186050057E0,9.780000687E0,9.851658636E0
1.503207210E-1,1.605000161E-2,-1.182000041E0,9.766050339E0,9.837333019E0
1.551140290E-1,4.695000127E-2,-1.158000112E0,9.772950172E0,9.841428943E0
1.599084810E-1,7.800000161E-2,-1.162050009E0,9.756000519E0,9.825273042E0
1.647007900E-1,6.195000187E-2,-1.183950067E0,9.742050171E0,9.813924653E0
1.694942500E-1,3.795000166E-2,-1.171950102E0,9.768000603E0,9.838127008E0
1.742875630E-1,3.795000166E-2,-1.174050093E0,9.763050079E0,9.833462293E0
1.790822550E-1,4.005000368E-2,-1.146000028E0,9.756000519E0,9.823159685E0
1.838743340E-1,4.305000231E-2,-1.186050057E0,9.751049995E0,9.823010946E0
1.886678020E-1,3.795000166E-2,-1.186050057E0,9.778050423E0,9.849793146E0
1.934611100E-1,3.495000303E-2,-1.183950067E0,9.769950867E0,9.841488668E0
1.982558030E-1,3.795000166E-2,-1.177050114E0,9.772950172E0,9.843649844E0
2.030478720E-1,4.305000231E-2,-1.171950102E0,9.754050255E0,9.824297263E0
2.078414090E-1,3.299999982E-2,-1.179000020E0,9.768000603E0,9.838951459E0
2.126348700E-1,5.700000376E-2,-1.189050078E0,9.775050163E0,9.847268392E0
2.174293360E-1,3.495000303E-2,-1.155000091E0,9.772950172E0,9.841026460E0
2.222214150E-1,3.795000166E-2,-1.155000091E0,9.792000771E0,9.859956618E0
2.270149510E-1,6.599999964E-2,-1.162050009E0,9.781949997E0,9.850952338E0
2.318084040E-1,6.195000187E-2,-1.158000112E0,9.772950172E0,9.841511933E0
2.366028660E-1,4.995000362E-2,-1.159950018E0,9.775050163E0,9.843758669E0
2.413951750E-1,5.205000192E-2,-1.170000076E0,9.766050339E0,9.836023007E0
2.461884660E-1,3.299999982E-2,-1.179000020E0,9.781949997E0,9.852800403E0
2.509819270E-1,5.205000192E-2,-1.159950018E0,9.769950867E0,9.838705869E0
2.557764660E-1,3.795000166E-2,-1.167000055E0,9.769950867E0,9.839475051E0
2.605687040E-1,4.305000231E-2,-1.159950018E0,9.748950005E0,9.817808490E0
2.653620090E-1,5.205000192E-2,-1.174050093E0,9.742050171E0,9.812677736E0
2.701554710E-1,4.005000368E-2,-1.170000076E0,9.756000519E0,9.825988515E0
2.749499940E-1,3.299999982E-2,-1.171950102E0,9.751049995E0,9.821279553E0
2.797422270E-1,3.495000303E-2,-1.171950102E0,9.778050423E0,9.848094161E0
2.845355330E-1,4.005000368E-2,-1.170000076E0,9.756000519E0,9.825988515E0
2.893289940E-1,1.605000161E-2,-1.167000055E0,9.769950867E0,9.839414956E0
2.941235330E-1,3.495000303E-2,-1.162050009E0,9.780000687E0,9.848857556E0
2.989158430E-1,5.400000140E-2,-1.174050093E0,9.757950783E0,9.828474607E0
3.037090660E-1,3.795000166E-2,-1.177050114E0,9.769950867E0,9.840672086E0
3.085025280E-1,3.495000303E-2,-1.153050065E0,9.778050423E0,9.845862889E0
3.132970660E-1,4.305000231E-2,-1.159950018E0,9.793950081E0,9.862494387E0
3.180893710E-1,1.605000161E-2,-1.147950053E0,9.775050163E0,9.842238192E0
3.228828310E-1,1.905000024E-2,-1.174050093E0,9.778050423E0,9.848300696E0
3.276761380E-1,2.595000155E-2,-1.165050030E0,9.787050247E0,9.856184227E0
3.324705810E-1,2.595000155E-2,-1.159950018E0,9.760950089E0,9.829664495E0
3.372628910E-1,7.050000131E-3,-1.155000091E0,9.780000687E0,9.847968742E0
3.420563500E-1,1.950000064E-3,-1.165050030E0,9.772950172E0,9.842149178E0
3.468496580E-1,-1.950000064E-3,-1.165050030E0,9.769950867E0,9.839170967E0
3.516443500E-1,1.095000096E-2,-1.147950053E0,9.772950172E0,9.840145543E0
3.564364290E-1,1.950000064E-3,-1.153050065E0,9.763050079E0,9.830904084E0
3.612298890E-1,4.050000105E-3,-1.153050065E0,9.757950783E0,9.825840643E0
3.660231960E-1,-1.395000052E-2,-1.143000007E0,9.763050079E0,9.829740102E0
3.708178890E-1,-7.050000131E-3,-1.143000007E0,9.760950089E0,9.827646989E0
3.756100060E-1,-9.000000544E-3,-1.147950053E0,9.772950172E0,9.840143566E0
3.804034650E-1,-2.805000171E-2,-1.147950053E0,9.757950783E0,9.825282673E0
3.851967730E-1,-1.605000161E-2,-1.162050009E0,9.780000687E0,9.848808621E0
3.899914940E-1,-3.795000166E-2,-1.143000007E0,9.760950089E0,9.827717733E0
3.947835730E-1,-2.595000155E-2,-1.146000028E0,9.772950172E0,9.839946369E0
3.995770330E-1,-2.400000021E-2,-1.174050093E0,9.775050163E0,9.845332667E0
4.043703490E-1,-3.299999982E-2,-1.147950053E0,9.763050079E0,9.830362413E0
4.091650420E-1,-2.400000021E-2,-1.159950018E0,9.781949997E0,9.850512971E0
4.139573510E-1,-2.805000171E-2,-1.174050093E0,9.775050163E0,9.845343372E0
4.187506430E-1,-3.795000166E-2,-1.159950018E0,9.792000771E0,9.860537680E0
4.235438740E-1,-2.400000021E-2,-1.170000076E0,9.778050423E0,9.847829520E0
4.283385660E-1,-5.505000427E-2,-1.162050009E0,9.763050079E0,9.832117655E0
4.331308850E-1,-2.595000155E-2,-1.162050009E0,9.768000603E0,9.836913612E0
4.379241910E-1,-2.595000155E-2,-1.171950102E0,9.766050339E0,9.836151669E0
4.427176520E-1,-3.600000218E-2,-1.186050057E0,9.780000687E0,9.851721889E0
4.475121050E-1,-3.105000220E-2,-1.167000055E0,9.745950699E0,9.815620625E0
4.523044150E-1,-3.105000220E-2,-1.183950067E0,9.775050163E0,9.846537846E0
4.570977200E-1,-2.100000158E-2,-1.195950031E0,9.754050255E0,9.827117271E0
4.618911670E-1,-3.105000220E-2,-1.186050057E0,9.768000603E0,9.839792407E0
4.666857050E-1,-4.995000362E-2,-1.179000020E0,9.772950172E0,9.843936770E0
4.714779380E-1,-3.600000218E-2,-1.183950067E0,9.787050247E0,9.858467746E0
4.762712440E-1,-1.905000024E-2,-1.186050057E0,9.772950172E0,9.844675348E0
4.810647050E-1,-2.100000158E-2,-1.195950031E0,9.751049995E0,9.824139326E0
4.858592440E-1,-2.805000171E-2,-1.195950031E0,9.760950089E0,9.833983420E0
4.906514580E-1,-2.805000171E-2,-1.206000090E0,9.744000435E0,9.818389251E0
4.954447630E-1,-1.605000161E-2,-1.194000006E0,9.751049995E0,9.823892794E0
5.002382250E-1,-1.905000024E-2,-1.207950115E0,9.763050079E0,9.837512553E0
5.050327780E-1,-2.400000021E-2,-1.218000054E0,9.745950699E0,9.821794905E0
5.098250110E-1,-3.105000220E-2,-1.206000090E0,9.781949997E0,9.856061387E0
5.146183170E-1,9.000000544E-3,-1.206000090E0,9.763050079E0,9.837258971E0
5.194117740E-1,-1.605000161E-2,-1.219950080E0,9.775050163E0,9.850895467E0
5.242063130E-1,-1.950000064E-3,-1.218000054E0,9.756000519E0,9.831738100E0
5.289986220E-1,-9.000000544E-3,-1.219950080E0,9.768000603E0,9.843891252E0
5.337920770E-1,1.950000064E-3,-1.215000033E0,9.754050255E0,9.829431584E0
5.385853100E-1,-4.050000105E-3,-1.218000054E0,9.768000603E0,9.843646495E0
5.433798460E-1,7.050000131E-3,-1.239000082E0,9.757950783E0,9.836298815E0
5.481721560E-1,4.050000105E-3,-1.219950080E0,9.739050865E0,9.815162065E0
5.529656160E-1,-1.950000064E-3,-1.191000104E0,9.748950005E0,9.821431222E0
5.577588480E-1,7.050000131E-3,-1.213050008E0,9.748950005E0,9.824131830E0
5.625533940E-1,1.950000064E-3,-1.206000090E0,9.742050171E0,9.816413884E0
5.673457030E-1,2.595000155E-2,-1.219950080E0,9.757950783E0,9.833949109E0
5.721391630E-1,1.605000161E-2,-1.225050092E0,9.757950783E0,9.834561953E0
5.769324660E-1,2.295000106E-2,-1.219950080E0,9.756000519E0,9.832006460E0
5.817269270E-1,7.050000131E-3,-1.215000033E0,9.763050079E0,9.838364785E0
5.865192370E-1,1.905000024E-2,-1.207950115E0,9.760950089E0,9.835428461E0
5.913127310E-1,1.395000052E-2,-1.218000054E0,9.760950089E0,9.836659258E0
5.961060380E-1,9.000000544E-3,-1.213050008E0,9.766050339E0,9.841103116E0
6.009007310E-1,1.905000024E-2,-1.195950031E0,9.760950089E0,9.833961867E0
6.056927750E-1,2.100000158E-2,-1.227000117E0,9.769950867E0,9.846720785E0
6.104862350E-1,2.805000171E-2,-1.225050092E0,9.763050079E0,9.839648438E0
6.152795430E-1,4.050000105E-3,-1.207950115E0,9.772950172E0,9.847320192E0
6.200740040E-1,3.299999982E-2,-1.203000069E0,9.754050255E0,9.828010711E0
6.248665450E-1,1.395000052E-2,-1.215000033E0,9.784950256E0,9.860105030E0
6.296597740E-1,2.595000155E-2,-1.210050106E0,9.745950699E0,9.820817160E0
6.344530720E-1,9.000000544E-3,-1.213050008E0,9.760950089E0,9.836041783E0
6.392477650E-1,2.805000171E-2,-1.189050078E0,9.768000603E0,9.840145460E0
6.440398430E-1,1.395000052E-2,-1.218000054E0,9.757950783E0,9.833683044E0
6.488333990E-1,1.605000161E-2,-1.213050008E0,9.751049995E0,9.826226332E0
6.536266320E-1,1.095000096E-2,-1.198050022E0,9.766050339E0,9.839267400E0
6.584213220E-1,3.495000303E-2,-1.203000069E0,9.780000687E0,9.853773089E0
6.632134200E-1,1.395000052E-2,-1.198050022E0,9.754050255E0,9.827360522E0
6.680069560E-1,1.395000052E-2,-1.201050043E0,9.763050079E0,9.836659121E0
6.728001890E-1,3.299999982E-2,-1.203000069E0,9.766050339E0,9.839920598E0
6.775948800E-1,4.995000362E-2,-1.215000033E0,9.751049995E0,9.826581099E0
6.823869590E-1,2.805000171E-2,-1.201050043E0,9.766050339E0,9.839667028E0
6.871804180E-1,1.905000024E-2,-1.203000069E0,9.775050163E0,9.848816059E0
6.919739620E-1,4.005000368E-2,-1.186050057E0,9.763050079E0,9.834910553E0
6.967684230E-1,3.105000220E-2,-1.167000055E0,9.763050079E0,9.832598847E0
7.015607330E-1,3.105000220E-2,-1.189050078E0,9.763050079E0,9.835240264E0
7.063539760E-1,3.495000303E-2,-1.195950031E0,9.778050423E0,9.850979040E0
7.111475140E-1,5.205000192E-2,-1.182000041E0,9.769950867E0,9.841329851E0
7.159419760E-1,3.299999982E-2,-1.174050093E0,9.769950867E0,9.840295857E0
7.207343000E-1,2.100000158E-2,-1.174050093E0,9.768000603E0,9.838326605E0
7.255276060E-1,3.495000303E-2,-1.206000090E0,9.763050079E0,9.837316940E0
7.303210680E-1,4.005000368E-2,-1.182000041E0,9.754050255E0,9.825488511E0
7.351156010E-1,4.695000127E-2,-1.165050030E0,9.766050339E0,9.835409757E0
7.399078340E-1,4.995000362E-2,-1.158000112E0,9.769950867E0,9.838465287E0
7.447011400E-1,5.400000140E-2,-1.170000076E0,9.769950867E0,9.839906306E0
7.494945860E-1,5.400000140E-2,-1.179000020E0,9.760950089E0,9.832044735E0
7.542890480E-1,5.205000192E-2,-1.182000041E0,9.781949997E0,9.853242057E0
7.590813570E-1,5.895000324E-2,-1.167000055E0,9.775050163E0,9.844641686E0
7.638746490E-1,5.400000140E-2,-1.174050093E0,9.775050163E0,9.845451504E0
7.686681110E-1,7.095000148E-2,-1.159950018E0,9.757950783E0,9.826908030E0
7.734626490E-1,6.195000187E-2,-1.162050009E0,9.769950867E0,9.839011026E0
7.782548960E-1,6.195000187E-2,-1.159950018E0,9.787050247E0,9.855743218E0
7.830482020E-1,8.295000345E-2,-1.147950053E0,9.778050423E0,9.845554332E0
7.878416630E-1,8.595000207E-2,-1.155000091E0,9.775050163E0,9.843425131E0
7.926362070E-1,7.605000585E-2,-1.147950053E0,9.766050339E0,9.833580841E0
7.974284390E-1,7.095000148E-2,-1.158000112E0,9.780000687E0,9.848574089E0
8.022217450E-1,7.800000161E-2,-1.177050114E0,9.769950867E0,9.840908033E0
8.070152120E-1,6.195000187E-2,-1.167000055E0,9.780000687E0,9.849575644E0
8.118097500E-1,6.900000572E-2,-1.141050100E0,9.790050507E0,9.856563562E0
8.166019830E-1,1.000500023E-1,-1.167000055E0,9.775050163E0,9.844973582E0
8.213954800E-1,9.000000358E-2,-1.167000055E0,9.790050507E0,9.859770690E0
8.261887130E-1,8.295000345E-2,-1.153050065E0,9.757950783E0,9.826189935E0
8.309832500E-1,8.100000024E-2,-1.150950074E0,9.772950172E0,9.840823245E0
8.357754870E-1,8.100000024E-2,-1.155000091E0,9.780000687E0,9.848299327E0
8.405690240E-1,1.050000042E-1,-1.194000006E0,9.763050079E0,9.836351349E0
8.453623320E-1,9.300000221E-2,-1.174050093E0,9.769950867E0,9.840679985E0
8.501567830E-1,1.000500023E-1,-1.155000091E0,9.768000603E0,9.836557883E0
8.549490930E-1,1.000500023E-1,-1.179000020E0,9.781949997E0,9.853253107E0
8.597423220E-1,1.050000042E-1,-1.167000055E0,9.751049995E0,9.821195963E0
8.645358650E-1,9.000000358E-2,-1.182000041E0,9.757950783E0,9.829691123E0
8.693303270E-1,1.020000055E-1,-1.201050043E0,9.778050423E0,9.852065533E0
8.741226360E-1,1.189500093E-1,-1.177050114E0,9.768000603E0,9.839381680E0
8.789158460E-1,1.099500060E-1,-1.189050078E0,9.778050423E0,9.850695364E0
8.837093080E-1,1.309500039E-1,-1.179000020E0,9.778050423E0,9.849744109E0
8.885038460E-1,1.099500060E-1,-1.218000054E0,9.784950256E0,9.861078270E0
8.932961460E-1,1.240500063E-1,-1.213050008E0,9.760950089E0,9.836819880E0
8.980896050E-1,1.050000042E-1,-1.206000090E0,9.766050339E0,9.840792673E0
9.028829130E-1,1.120500043E-1,-1.183950067E0,9.772950172E0,9.845041800E0
9.076776200E-1,9.795000404E-2,-1.201050043E0,9.766050339E0,9.840114564E0
9.124696990E-1,1.099500060E-1,-1.218000054E0,9.760950089E0,9.837263835E0
9.172631590E-1,1.260000020E-1,-1.206000090E0,9.784950256E0,9.859795319E0
9.220564860E-1,9.795000404E-2,-1.218000054E0,9.745950699E0,9.822253986E0
9.268509470E-1,1.140000075E-1,-1.215000033E0,9.766050339E0,9.841999812E0
9.316432570E-1,1.360500008E-1,-1.206000090E0,9.745950699E0,9.821227054E0
9.364367110E-1,1.189500093E-1,-1.206000090E0,9.769950867E0,9.844822256E0
9.412300190E-1,1.170000061E-1,-1.210050106E0,9.748950005E0,9.824456038E0
9.460247400E-1,1.099500060E-1,-1.207950115E0,9.756000519E0,9.831112786E0
9.508168190E-1,1.240500063E-1,-1.210050106E0,9.763050079E0,9.838534267E0
9.556102790E-1,1.330500096E-1,-1.207950115E0,9.751049995E0,9.826485730E0
9.604035670E-1,1.219500080E-1,-1.227000117E0,9.772950172E0,9.850429238E0
9.651982590E-1,1.410000026E-1,-1.198050022E0,9.754050255E0,9.828362083E0
9.699903380E-1,1.140000075E-1,-1.231950045E0,9.766050339E0,9.844106670E0
9.747838110E-1,1.309500039E-1,-1.210050106E0,9.763050079E0,9.838623685E0
9.795771190E-1,1.290000081E-1,-1.215000033E0,9.756000519E0,9.832212986E0
9.843718110E-1,1.189500093E-1,-1.198050022E0,9.766050339E0,9.839980294E0
9.891638950E-1,1.189500093E-1,-1.210050106E0,9.748950005E0,9.824479455E0
9.939573550E-1,1.120500043E-1,-1.210050106E0,9.772950172E0,9.848214637E0
9.987506630E-1,1.309500039E-1,-1.227000117E0,9.754050255E0,9.831794016E0
1.003545335E0,1.240500063E-1,-1.227000117E0,9.754050255E0,9.831704535E0
1.008337414E0,1.380000114E-1,-1.206000090E0,9.760950089E0,9.836138818E0
1.013130873E0,1.360500008E-1,-1.218000054E0,9.768000603E0,9.844585797E0
1.017924186E0,1.189500093E-1,-1.239000082E0,9.775050163E0,9.853977674E0
1.022718878E0,1.309500039E-1,-1.210050106E0,9.768000603E0,9.843536201E0
1.027510957E0,1.099500060E-1,-1.215000033E0,9.760950089E0,9.836892838E0
1.032304432E0,1.240500063E-1,-1.203000069E0,9.754050255E0,9.828738166E0
1.037097740E0,1.240500063E-1,-1.230000019E0,9.757950783E0,9.835948959E0
1.041892432E0,1.360500008E-1,-1.213050008E0,9.756000519E0,9.832067232E0
1.046684515E0,1.410000026E-1,-1.215000033E0,9.751049995E0,9.827465701E0
1.051477974E0,1.429500133E-1,-1.186050057E0,9.744000435E0,9.816959505E0
1.056271282E0,1.360500008E-1,-1.213050008E0,9.757950783E0,9.834002410E0
1.061065965E0,1.429500133E-1,-1.191000104E0,9.756000519E0,9.829469064E0
1.065858044E0,1.240500063E-1,-1.207950115E0,9.763050079E0,9.838276208E0
1.070651504E0,1.260000020E-1,-1.207950115E0,9.766050339E0,9.841278306E0
1.075444816E0,1.290000081E-1,-1.219950080E0,9.763050079E0,9.839820428E0
1.080239508E0,1.429500133E-1,-1.195950031E0,9.760950089E0,9.834982349E0
1.085031818E0,1.380000114E-1,-1.206000090E0,9.768000603E0,9.843135476E0
1.089825119E0,1.600500047E-1,-1.201050043E0,9.780000687E0,9.854772988E0
1.094618581E0,1.380000114E-1,-1.198050022E0,9.766050339E0,9.840229016E0
1.099413042E0,1.219500080E-1,-1.207950115E0,9.768000603E0,9.843162655E0
1.104205352E0,1.410000026E-1,-1.191000104E0,9.757950783E0,9.831376594E0
1.108998658E0,1.330500096E-1,-1.198050022E0,9.756000519E0,9.830186788E0
1.113792119E0,1.380000114E-1,-1.182000041E0,9.778050423E0,9.850199905E0
1.118586557E0,1.530000120E-1,-1.191000104E0,9.748950005E0,9.822622687E0
1.123378867E0,1.189500093E-1,-1.203000069E0,9.772950172E0,9.847431815E0
1.128172095E0,1.549500078E-1,-1.189050078E0,9.768000603E0,9.841325387E0
1.132965619E0,1.360500008E-1,-1.201050043E0,9.766050339E0,9.840567566E0
1.137760080E0,1.290000081E-1,-1.182000041E0,9.745950699E0,9.818213693E0
1.142552390E0,1.380000114E-1,-1.186050057E0,9.756000519E0,9.828799767E0
1.147345605E0,1.240500063E-1,-1.182000041E0,9.775050163E0,9.847036011E0
1.152139143E0,1.219500080E-1,-1.186050057E0,9.763050079E0,9.835585056E0
1.156933605E0,1.189500093E-1,-1.203000069E0,9.775050163E0,9.849515925E0
1.161725915E0,1.219500080E-1,-1.213050008E0,9.781949997E0,9.857631961E0
1.166519220E0,1.480500102E-1,-1.195950031E0,9.772950172E0,9.846967572E0
1.171312682E0,1.410000026E-1,-1.183950067E0,9.766050339E0,9.838564833E0
1.176107186E0,1.309500039E-1,-1.177050114E0,9.769950867E0,9.841470155E0
1.180899419E0,1.500000060E-1,-1.195950031E0,9.772950172E0,9.846997083E0
1.185692725E0,1.360500008E-1,-1.198050022E0,9.772950172E0,9.847049737E0
1.190486186E0,1.450500041E-1,-1.191000104E0,9.781949997E0,9.855255780E0
1.195280648E0,1.450500041E-1,-1.171950102E0,9.778050423E0,9.849100295E0
1.200072958E0,1.429500133E-1,-1.206000090E0,9.763050079E0,9.838293438E0
1.204866239E0,1.260000020E-1,-1.165050030E0,9.763050079E0,9.833125872E0
1.209659701E0,1.360500008E-1,-1.201050043E0,9.781949997E0,9.856347019E0
1.214454162E0,1.330500096E-1,-1.195950031E0,9.768000603E0,9.841841015E0
1.219246472E0,1.480500102E-1,-1.195950031E0,9.766050339E0,9.840119639E0
1.224039778E0,1.360500008E-1,-1.191000104E0,9.766050339E0,9.839346018E0
1.228833009E0,1.309500039E-1,-1.213050008E0,9.754050255E0,9.830062797E0
1.233627797E0,1.260000020E-1,-1.213050008E0,9.769950867E0,9.845776062E0
1.238420030E0,1.450500041E-1,-1.210050106E0,9.766050339E0,9.841798615E0
1.243213335E0,1.290000081E-1,-1.186050057E0,9.766050339E0,9.838653107E0
1.248006773E0,1.410000026E-1,-1.201050043E0,9.757950783E0,9.832599132E0
1.252801311E0,1.330500096E-1,-1.201050043E0,9.772950172E0,9.847374197E0
1.257593544E0,1.260000020E-1,-1.210050106E0,9.763050079E0,9.838559047E0
1.262386836E0,1.360500008E-1,-1.210050106E0,9.766050339E0,9.841670086E0
1.267180297E0,1.330500096E-1,-1.195950031E0,9.763050079E0,9.836927652E0
1.271974759E0,1.260000020E-1,-1.219950080E0,9.766050339E0,9.842758425E0
1.276767069E0,1.380000114E-1,-1.215000033E0,9.775050163E0,9.851237221E0
1.281560374E0,1.410000026E-1,-1.218000054E0,9.768000603E0,9.844655449E0
1.286353836E0,1.120500043E-1,-1.215000033E0,9.775050163E0,9.850907876E0
1.291148374E0,1.410000026E-1,-1.207950115E0,9.766050339E0,9.841481784E0
1.295940607E0,1.290000081E-1,-1.201050043E0,9.757950783E0,9.832434372E0
1.300733913E0,1.410000026E-1,-1.203000069E0,9.751049995E0,9.825989323E0
1.305527359E0,1.380000114E-1,-1.219950080E0,9.760950089E0,9.837858956E0
1.310321898E0,1.260000020E-1,-1.219950080E0,9.748950005E0,9.825791591E0
1.315114131E0,1.189500093E-1,-1.206000090E0,9.766050339E0,9.840951404E0
1.319907441E0,1.260000020E-1,-1.215000033E0,9.772950172E0,9.848992647E0
1.324700903E0,1.330500096E-1,-1.213050008E0,9.768000603E0,9.843933584E0
1.329495441E0,9.495000541E-2,-1.218000054E0,9.760950089E0,9.837107617E0
1.334287679E0,1.240500063E-1,-1.207950115E0,9.757950783E0,9.833215922E0
1.339080985E0,1.140000075E-1,-1.210050106E0,9.781949997E0,9.857168103E0
1.343874446E0,1.140000075E-1,-1.203000069E0,9.766050339E0,9.840525615E0
1.348668999E0,1.120500043E-1,-1.195950031E0,9.754050255E0,9.827733617E0
1.353461232E0,1.170000061E-1,-1.207950115E0,9.780000687E0,9.855011208E0
1.358254537E0,1.050000042E-1,-1.206000090E0,9.754050255E0,9.828883843E0
1.363048008E0,1.120500043E-1,-1.195950031E0,9.757950783E0,9.831604913E0
1.367842546E0,1.189500093E-1,-1.222050071E0,9.739050865E0,9.816143196E0
1.372634779E0,1.429500133E-1,-1.206000090E0,9.763050079E0,9.838293438E0
1.377428090E0,1.120500043E-1,-1.203000069E0,9.757950783E0,9.832464993E0
1.382221551E0,1.050000042E-1,-1.213050008E0,9.763050079E0,9.838681933E0
1.387016013E0,1.020000055E-1,-1.203000069E0,9.769950867E0,9.844264985E0
1.391808304E0,9.300000221E-2,-1.207950115E0,9.757950783E0,9.832873230E0
1.396601609E0,1.189500093E-1,-1.198050022E0,9.757950783E0,9.831941641E0
1.401395071E0,1.050000042E-1,-1.201050043E0,9.769950867E0,9.844058418E0
1.406189599E0,9.795000404E-2,-1.213050008E0,9.742050171E0,9.817770931E0
1.410981832E0,9.495000541E-2,-1.206000090E0,9.754050255E0,9.828781618E0
1.415775138E0,8.805000782E-2,-1.210050106E0,9.756000519E0,9.831150502E0
1.420568640E0,8.595000207E-2,-1.177050114E0,9.772950172E0,9.843951922E0
1.425363178E0,9.300000221E-2,-1.167000055E0,9.756000519E0,9.825990243E0
1.430155411E0,9.495000541E-2,-1.179000020E0,9.756000519E0,9.827441309E0
1.434948725E0,1.099500060E-1,-1.210050106E0,9.766050339E0,9.841343886E0
1.439742187E0,9.000000358E-2,-1.189050078E0,9.756000519E0,9.828605507E0
1.444536649E0,9.495000541E-2,-1.186050057E0,9.748950005E0,9.821290976E0
1.449328949E0,9.495000541E-2,-1.198050022E0,9.754050255E0,9.827809305E0
1.454122255E0,9.000000358E-2,-1.191000104E0,9.781949997E0,9.854599281E0
1.458915717E0,7.800000161E-2,-1.195950031E0,9.766050339E0,9.839315001E0
1.463710231E0,8.805000782E-2,-1.182000041E0,9.757950783E0,9.829673463E0
1.468502464E0,8.295000345E-2,-1.203000069E0,9.790050507E0,9.864034610E0
1.473295769E0,7.605000585E-2,-1.195950031E0,9.757950783E0,9.831260528E0
1.478089279E0,7.395000011E-2,-1.201050043E0,9.763050079E0,9.836927196E0
1.482883817E0,8.100000024E-2,-1.179000020E0,9.760950089E0,9.832230097E0
1.487676050E0,6.599999964E-2,-1.177050114E0,9.769950867E0,9.840820236E0
1.492469351E0,8.595000207E-2,-1.186050057E0,9.775050163E0,9.847116727E0
1.497262813E0,7.095000148E-2,-1.177050114E0,9.742050171E0,9.813155578E0
1.502057351E0,6.599999964E-2,-1.191000104E0,9.778050423E0,9.850538428E0
1.506849584E0,7.605000585E-2,-1.191000104E0,9.748950005E0,9.821725462E0
1.511642889E0,6.195000187E-2,-1.186050057E0,9.781949997E0,9.853785987E0
1.516436351E0,8.100000024E-2,-1.171950102E0,9.745950699E0,9.816495457E0
1.521230928E0,6.195000187E-2,-1.198050022E0,9.768000603E0,9.841392048E0
1.526023160E0,6.405000389E-2,-1.207950115E0,9.769950867E0,9.844551073E0
1.530816466E0,6.405000389E-2,-1.171950102E0,9.754050255E0,9.824411729E0
1.535609918E0,3.495000303E-2,-1.191000104E0,9.781949997E0,9.854250276E0
1.540404456E0,7.395000011E-2,-1.191000104E0,9.766050339E0,9.838683300E0
1.545196689E0,5.205000192E-2,-1.186050057E0,9.769950867E0,9.841817103E0
1.549990005E0,5.895000324E-2,-1.195950031E0,9.769950867E0,9.843053973E0
1.554783466E0,4.305000231E-2,-1.171950102E0,9.780000687E0,9.850062628E0
1.559577928E0,5.895000324E-2,-1.182000041E0,9.787050247E0,9.858344270E0
1.564370242E0,7.095000148E-2,-1.179000020E0,9.781949997E0,9.853000593E0
1.569163548E0,4.995000362E-2,-1.179000020E0,9.766050339E0,9.837086727E0
1.573957010E0,6.599999964E-2,-1.189050078E0,9.778050423E0,9.850302846E0
1.578751533E0,3.495000303E-2,-1.195950031E0,9.775050163E0,9.848000999E0
1.583543766E0,5.205000192E-2,-1.195950031E0,9.751049995E0,9.824254765E0
1.588337072E0,4.305000231E-2,-1.195950031E0,9.763050079E0,9.836122032E0
1.593130524E0,4.500000179E-2,-1.183950067E0,9.772950172E0,9.844506988E0
1.597924986E0,4.305000231E-2,-1.198050022E0,9.772950172E0,9.846203950E0
1.602717295E0,2.295000106E-2,-1.194000006E0,9.763050079E0,9.835817687E0
1.607510591E0,3.105000220E-2,-1.189050078E0,9.757950783E0,9.830178415E0
1.612304053E0,4.995000362E-2,-1.189050078E0,9.763050079E0,9.835318091E0
1.617098591E0,3.299999982E-2,-1.210050106E0,9.769950867E0,9.844655921E0
1.621890834E0,2.805000171E-2,-1.210050106E0,9.772950172E0,9.847617130E0
1.626684140E0,3.105000220E-2,-1.206000090E0,9.760950089E0,9.835219720E0
1.631477601E0,3.105000220E-2,-1.210050106E0,9.775050163E0,9.849710202E0
1.636272178E0,3.105000220E-2,-1.195950031E0,9.748950005E0,9.822081591E0
1.641064410E0,3.495000303E-2,-1.213050008E0,9.778050423E0,9.853069669E0
1.645857716E0,3.105000220E-2,-1.195950031E0,9.756000519E0,9.829079647E0
1.650651144E0,1.395000052E-2,-1.203000069E0,9.775050163E0,9.848807515E0
1.655445605E0,1.605000161E-2,-1.207950115E0,9.769950867E0,9.844355795E0
1.660237915E0,2.295000106E-2,-1.210050106E0,9.742050171E0,9.816938907E0
1.665031230E0,1.395000052E-2,-1.207950115E0,9.763050079E0,9.837503999E0
1.669824691E0,2.595000155E-2,-1.195950031E0,9.727050781E0,9.800330953E0
1.674619153E0,4.050000105E-3,-1.210050106E0,9.787050247E0,9.861571386E0
1.679411481E0,2.100000158E-2,-1.198050022E0,9.756000519E0,9.829308774E0
1.684204787E0,7.050000131E-3,-1.195950031E0,9.769950867E0,9.842879971E0
1.688998249E0,2.595000155E-2,-1.194000006E0,9.754050255E0,9.826891970E0
1.693792729E0,9.000000544E-3,-1.203000069E0,9.756000519E0,9.829895029E0
1.698585039E0,1.905000024E-2,-1.219950080E0,9.744000435E0,9.820090915E0
1.703378345E0,2.295000106E-2,-1.206000090E0,9.745950699E0,9.820311499E0
1.708171787E0,0.000000000E0,-1.201050043E0,9.769950867E0,9.843498420E0
1.712966249E0,2.100000158E-2,-1.195950031E0,9.754050255E0,9.827117271E0
1.717758558E0,4.050000105E-3,-1.239000082E0,9.775050163E0,9.853260542E0
1.722551879E0,4.050000105E-3,-1.218000054E0,9.733950615E0,9.809859077E0
1.727345110E0,-9.000000544E-3,-1.222050071E0,9.757950783E0,9.834179725E0
1.732139879E0,1.905000024E-2,-1.203000069E0,9.756000519E0,9.829909368E0
1.736932121E0,-9.000000544E-3,-1.213050008E0,9.751049995E0,9.826217346E0
1.741725427E0,-1.950000064E-3,-1.213050008E0,9.748950005E0,9.824129494E0
1.746518850E0,1.395000052E-2,-1.177050114E0,9.756000519E0,9.826758758E0
1.751313312E0,-2.100000158E-2,-1.207950115E0,9.778050423E0,9.852403491E0
1.756105391E0,4.050000105E-3,-1.207950115E0,9.739050865E0,9.813677783E0
1.760898869E0,-2.100000158E-2,-1.218000054E0,9.768000603E0,9.843668062E0
1.765692177E0,-1.950000064E-3,-1.201050043E0,9.766050339E0,9.839627240E0
1.770486869E0,-2.595000155E-2,-1.213050008E0,9.751049995E0,9.826247490E0
1.775279169E0,-3.105000220E-2,-1.206000090E0,9.754050255E0,9.828372027E0
1.780072475E0,1.605000161E-2,-1.210050106E0,9.751049995E0,9.825856445E0
1.784865705E0,-1.395000052E-2,-1.213050008E0,9.766050339E0,9.841108888E0
1.789660413E0,-4.050000105E-3,-1.170000076E0,9.744000435E0,9.813993125E0
1.794452492E0,-2.805000171E-2,-1.195950031E0,9.756000519E0,9.829070628E0
1.799245951E0,4.050000105E-3,-1.201050043E0,9.745950699E0,9.819678846E0
1.804039268E0,-1.200000010E-2,-1.203000069E0,9.768000603E0,9.841808215E0
1.808833960E0,-7.050000131E-3,-1.183950067E0,9.745950699E0,9.817603704E0
1.813626270E0,-1.395000052E-2,-1.207950115E0,9.763050079E0,9.837503999E0
1.818419490E0,-7.050000131E-3,-1.206000090E0,9.766050339E0,9.840235014E0
1.823212797E0,-2.100000158E-2,-1.195950031E0,9.757950783E0,9.830988809E0
1.828007490E0,-1.605000161E-2,-1.194000006E0,9.775050163E0,9.847715436E0
1.832799583E0,-4.050000105E-3,-1.182000041E0,9.744000435E0,9.815430962E0
1.837593042E0,-2.100000158E-2,-1.189050078E0,9.766050339E0,9.838191923E0
1.842386350E0,-2.805000171E-2,-1.203000069E0,9.751049995E0,9.825017658E0
1.847181051E0,-2.400000021E-2,-1.198050022E0,9.768000603E0,9.841226328E0
1.851973130E0,-1.395000052E-2,-1.198050022E0,9.756000519E0,9.829296240E0
1.856766590E0,-1.200000010E-2,-1.189050078E0,9.748950005E0,9.821202079E0
1.861559869E0,-2.595000155E-2,-1.174050093E0,9.768000603E0,9.838338416E0
1.866354562E0,-1.905000024E-2,-1.165050030E0,9.756000519E0,9.825337175E0
1.871146641E0,-3.105000220E-2,-1.195950031E0,9.760950089E0,9.833992435E0
1.875940129E0,-4.005000368E-2,-1.170000076E0,9.756000519E0,9.825988515E0
1.880733437E0,-3.105000220E-2,-1.182000041E0,9.772950172E0,9.844218774E0
1.885528129E0,-1.200000010E-2,-1.170000076E0,9.751049995E0,9.820998941E0
1.890320199E0,-4.500000179E-2,-1.201050043E0,9.766050339E0,9.839729947E0
1.895113659E0,-2.100000158E-2,-1.171950102E0,9.751049995E0,9.821246563E0
1.899906966E0,-3.105000220E-2,-1.183950067E0,9.754050255E0,9.825690726E0
1.904701654E0,-1.395000052E-2,-1.165050030E0,9.766050339E0,9.835307590E0
1.909493733E0,-2.400000021E-2,-1.182000041E0,9.763050079E0,9.834370694E0
1.914287192E0,-1.605000161E-2,-1.182000041E0,9.768000603E0,9.839269153E0
1.919080481E0,-2.805000171E-2,-1.179000020E0,9.748950005E0,9.820023118E0
1.923875173E0,-3.600000218E-2,-1.146000028E0,9.769950867E0,9.836999136E0
1.928667252E0,-1.605000161E-2,-1.182000041E0,9.763050079E0,9.834354506E0
1.933460688E0,-9.000000544E-3,-1.177050114E0,9.763050079E0,9.833751818E0
1.938253995E0,-2.400000021E-2,-1.177050114E0,9.775050163E0,9.845690868E0
1.943048688E0,-2.805000171E-2,-1.162050009E0,9.766050339E0,9.834982778E0
1.947840757E0,-4.005000368E-2,-1.171950102E0,9.778050423E0,9.848113581E0
1.952634216E0,-2.400000021E-2,-1.167000055E0,9.763050079E0,9.832579111E0
1.957427524E0,-1.905000024E-2,-1.183950067E0,9.766050339E0,9.837572865E0
1.962221985E0,-4.005000368E-2,-1.158000112E0,9.757950783E0,9.826503536E0
1.967014295E0,-9.000000544E-3,-1.177050114E0,9.751049995E0,9.821838116E0
1.971807755E0,-4.005000368E-2,-1.165050030E0,9.780000687E0,9.849231392E0
1.976601052E0,-3.299999982E-2,-1.162050009E0,9.769950867E0,9.838871336E0
1.981395745E0,-2.400000021E-2,-1.171950102E0,9.745950699E0,9.816190609E0
1.986187824E0,-1.605000161E-2,-1.177050114E0,9.781949997E0,9.852525073E0
1.990981274E0,-2.805000171E-2,-1.159950018E0,9.760950089E0,9.829670263E0
1.995774582E0,-3.105000220E-2,-1.171950102E0,9.766050339E0,9.836166446E0
2.000569044E0,-3.105000220E-2,-1.194000006E0,9.754050255E0,9.826906761E0
2.005361333E0,-1.395000052E-2,-1.183950067E0,9.733950615E0,9.805698697E0
2.010154793E0,-4.695000127E-2,-1.183950067E0,9.769950867E0,9.841538599E0
2.014948100E0,-3.299999982E-2,-1.182000041E0,9.748950005E0,9.820399141E0
2.019742779E0,-1.905000024E-2,-1.186050057E0,9.772950172E0,9.844675348E0
2.024534858E0,-2.100000158E-2,-1.170000076E0,9.745950699E0,9.815951110E0
2.029328317E0,-3.299999982E-2,-1.191000104E0,9.766050339E0,9.838460726E0
2.034121560E0,-2.400000021E-2,-1.186050057E0,9.763050079E0,9.834858290E0
2.038916097E0,-1.395000052E-2,-1.191000104E0,9.745950699E0,9.818463774E0
2.043708329E0,-2.400000021E-2,-1.186050057E0,9.781949997E0,9.853620476E0
2.048501634E0,-9.000000544E-3,-1.194000006E0,9.756000519E0,9.828797644E0
2.053295172E0,-2.805000171E-2,-1.203000069E0,9.766050339E0,9.839905243E0
2.058089634E0,-2.100000158E-2,-1.191000104E0,9.766050339E0,9.838427794E0
2.062881940E0,-1.605000161E-2,-1.201050043E0,9.745950699E0,9.819691127E0
2.067675399E0,-7.050000131E-3,-1.186050057E0,9.781949997E0,9.853593770E0
2.072468707E0,-2.100000158E-2,-1.191000104E0,9.760950089E0,9.833365084E0
2.077263159E0,-2.100000158E-2,-1.183950067E0,9.775050163E0,9.846511283E0
2.082055391E0,-4.050000105E-3,-1.191000104E0,9.751049995E0,9.823516359E0
2.086848697E0,-2.595000155E-2,-1.194000006E0,9.748950005E0,9.821829545E0
2.091642159E0,-9.000000544E-3,-1.182000041E0,9.763050079E0,9.834345527E0
2.096436697E0,-1.200000010E-2,-1.189050078E0,9.744000435E0,9.816288941E0
2.101229007E0,-2.100000158E-2,-1.213050008E0,9.742050171E0,9.817304765E0
2.106022222E0,-2.100000158E-2,-1.183950067E0,9.760950089E0,9.832513686E0
2.110815683E0,-1.395000052E-2,-1.189050078E0,9.745950699E0,9.818227422E0
2.115610222E0,0.000000000E0,-1.207950115E0,9.757950783E0,9.832433420E0
2.120402453E0,-7.050000131E-3,-1.186050057E0,9.766050339E0,9.837809902E0
2.125195759E0,-4.050000105E-3,-1.174050093E0,9.772950172E0,9.843219245E0
2.129989221E0,1.950000064E-3,-1.191000104E0,9.742050171E0,9.814582344E0
2.134783755E0,-1.605000161E-2,-1.189050078E0,9.751049995E0,9.823292407E0
2.139575988E0,-1.950000064E-3,-1.198050022E0,9.768000603E0,9.841197256E0
2.144369294E0,-1.950000064E-3,-1.206000090E0,9.772950172E0,9.847080536E0
2.149162798E0,-1.905000024E-2,-1.210050106E0,9.780000687E0,9.854592716E0
2.153957337E0,4.050000105E-3,-1.183950067E0,9.745950699E0,9.817602008E0
2.158749569E0,-1.905000024E-2,-1.206000090E0,9.754050255E0,9.828341442E0
2.163542885E0,1.950000064E-3,-1.186050057E0,9.766050339E0,9.837807569E0
2.168336347E0,1.950000064E-3,-1.198050022E0,9.763050079E0,9.836283572E0
2.173130885E0,-1.395000052E-2,-1.195950031E0,9.763050079E0,9.836037715E0
2.177923113E0,9.000000544E-3,-1.213050008E0,9.744000435E0,9.819221751E0
2.182716419E0,1.395000052E-2,-1.207950115E0,9.775050163E0,9.849413372E0
2.187509880E0,7.050000131E-3,-1.186050057E0,9.748950005E0,9.820834518E0
2.192304409E0,4.050000105E-3,-1.195950031E0,9.760950089E0,9.833944250E0
2.197096641E0,1.095000096E-2,-1.201050043E0,9.745950699E0,9.819684116E0
2.201889947E0,4.050000105E-3,-1.201050043E0,9.763050079E0,9.836650063E0
2.206683423E0,9.000000544E-3,-1.182000041E0,9.766050339E0,9.837324042E0
2.211477961E0,0.000000000E0,-1.189050078E0,9.745950699E0,9.818217512E0
2.216270194E0,1.395000052E-2,-1.213050008E0,9.760950089E0,9.836047558E0
2.221063515E0,2.295000106E-2,-1.206000090E0,9.763050079E0,9.837281625E0
2.225856976E0,1.095000096E-2,-1.201050043E0,9.769950867E0,9.843504510E0
2.230651438E0,2.295000106E-2,-1.195950031E0,9.766050339E0,9.839032595E0
2.235443756E0,1.095000096E-2,-1.179000020E0,9.763050079E0,9.833987381E0
2.240236985E0,3.495000303E-2,-1.201050043E0,9.756000519E0,9.829714585E0
2.245030293E0,1.095000096E-2,-1.203000069E0,9.769950867E0,9.843742632E0
2.249824980E0,1.095000096E-2,-1.183950067E0,9.757950783E0,9.829519884E0
2.254617290E0,1.605000161E-2,-1.203000069E0,9.769950867E0,9.843749626E0
2.259410596E0,7.050000131E-3,-1.189050078E0,9.751049995E0,9.823281825E0
2.264204053E0,-4.050000105E-3,-1.179000020E0,9.775050163E0,9.845895751E0
2.268998515E0,1.395000052E-2,-1.183950067E0,9.775050163E0,9.846498771E0
2.273790824E0,3.105000220E-2,-1.167000055E0,9.744000435E0,9.813684207E0
2.278584081E0,2.295000106E-2,-1.191000104E0,9.780000687E0,9.852280009E0
2.283377389E0,4.500000179E-2,-1.171950102E0,9.757950783E0,9.828178647E0
2.288172081E0,2.805000171E-2,-1.179000020E0,9.768000603E0,9.838936102E0
2.292964151E0,4.995000362E-2,-1.170000076E0,9.760950089E0,9.830948164E0
2.297757688E0,1.095000096E-2,-1.186050057E0,9.787050247E0,9.858660517E0
2.302551149E0,4.305000231E-2,-1.174050093E0,9.766050339E0,9.836462074E0
2.307345601E0,3.795000166E-2,-1.171950102E0,9.756000519E0,9.826212565E0
2.312137680E0,4.995000362E-2,-1.171950102E0,9.768000603E0,9.838180615E0
2.316931139E0,3.795000166E-2,-1.171950102E0,9.766050339E0,9.836190648E0
2.321724457E0,2.805000171E-2,-1.170000076E0,9.763050079E0,9.832946345E0
2.326519149E0,5.205000192E-2,-1.182000041E0,9.751049995E0,9.822566330E0
2.331311228E0,5.700000376E-2,-1.174050093E0,9.778050423E0,9.848447222E0
2.336104688E0,5.700000376E-2,-1.194000006E0,9.780000687E0,9.852781254E0
2.340897995E0,2.595000155E-2,-1.189050078E0,9.763050079E0,9.835225485E0
2.345692688E0,4.695000127E-2,-1.182000041E0,9.780000687E0,9.851281228E0
2.350484767E0,4.995000362E-2,-1.177050114E0,9.756000519E0,9.826875805E0
2.355278226E0,4.005000368E-2,-1.171950102E0,9.778050423E0,9.848113581E0
2.360071534E0,6.599999964E-2,-1.162050009E0,9.757950783E0,9.827121639E0
2.364866004E0,5.400000140E-2,-1.182000041E0,9.766050339E0,9.837468135E0
2.369658314E0,6.405000389E-2,-1.174050093E0,9.768000603E0,9.838512682E0
2.374451774E0,5.700000376E-2,-1.171950102E0,9.763050079E0,9.833303763E0
2.379245038E0,7.095000148E-2,-1.194000006E0,9.763050079E0,9.836046806E0
2.384039731E0,6.405000389E-2,-1.167000055E0,9.769950867E0,9.839610331E0
2.388831810E0,5.700000376E-2,-1.170000076E0,9.766050339E0,9.836050447E0
2.393625283E0,4.995000362E-2,-1.186050057E0,9.772950172E0,9.844783635E0
2.398418591E0,5.205000192E-2,-1.177050114E0,9.751049995E0,9.821971909E0
2.403213052E0,5.700000376E-2,-1.195950031E0,9.790050507E0,9.862993176E0
2.408005362E0,5.400000140E-2,-1.179000020E0,9.769950867E0,9.840980489E0
2.412798591E0,6.900000572E-2,-1.194000006E0,9.763050079E0,9.836032933E0
2.417592129E0,7.605000585E-2,-1.174050093E0,9.778050423E0,9.848575902E0
2.422386591E0,8.295000345E-2,-1.183950067E0,9.760950089E0,9.832841151E0
2.427178901E0,6.900000572E-2,-1.198050022E0,9.781949997E0,9.855284400E0
2.431972360E0,8.295000345E-2,-1.170000076E0,9.748950005E0,9.819256951E0
2.436765697E0,8.100000024E-2,-1.179000020E0,9.796950340E0,9.867970309E0
2.441560158E0,7.800000161E-2,-1.186050057E0,9.763050079E0,9.835138311E0
2.446352391E0,8.595000207E-2,-1.182000041E0,9.756000519E0,9.827718841E0
2.451145692E0,6.900000572E-2,-1.194000006E0,9.775050163E0,9.847944085E0
2.455939154E0,8.295000345E-2,-1.186050057E0,9.751049995E0,9.823266842E0
2.460733692E0,7.605000585E-2,-1.195950031E0,9.769950867E0,9.843171238E0
2.465525944E0,9.000000358E-2,-1.182000041E0,9.754050255E0,9.825819074E0
2.470319480E0,8.595000207E-2,-1.210050106E0,9.780000687E0,9.854949117E0
2.475112713E0,1.020000055E-1,-1.182000041E0,9.763050079E0,9.834870358E0
2.479907249E0,9.495000541E-2,-1.167000055E0,9.768000603E0,9.837923582E0
2.484699482E0,9.300000221E-2,-1.162050009E0,9.766050339E0,9.835382476E0
2.489492788E0,1.170000061E-1,-1.179000020E0,9.763050079E0,9.834677265E0
2.494286260E0,1.050000042E-1,-1.191000104E0,9.766050339E0,9.838965671E0
2.499080798E0,9.000000358E-2,-1.183950067E0,9.766050339E0,9.837966100E0
2.503873031E0,8.595000207E-2,-1.198050022E0,9.769950867E0,9.843508074E0
2.508666302E0,1.050000042E-1,-1.194000006E0,9.757950783E0,9.831290073E0
2.513459764E0,1.120500043E-1,-1.183950067E0,9.760950089E0,9.833129695E0
2.518254303E0,1.189500093E-1,-1.177050114E0,9.760950089E0,9.832382351E0
2.523046559E0,1.219500080E-1,-1.198050022E0,9.769950867E0,9.843888236E0
2.527839865E0,9.300000221E-2,-1.162050009E0,9.760950089E0,9.830318197E0
2.532633327E0,1.120500043E-1,-1.182000041E0,9.772950172E0,9.844807483E0
2.537427808E0,1.309500039E-1,-1.171950102E0,9.766050339E0,9.836989080E0
2.542220118E0,1.020000055E-1,-1.179000020E0,9.772950172E0,9.844338481E0
2.547013427E0,9.795000404E-2,-1.174050093E0,9.754050255E0,9.824941944E0
2.551806889E0,1.050000042E-1,-1.189050078E0,9.775050163E0,9.847663214E0
2.556601351E0,1.120500043E-1,-1.218000054E0,9.772950172E0,9.849194607E0
2.561393420E0,1.219500080E-1,-1.201050043E0,9.766050339E0,9.840382728E0
2.566186956E0,1.050000042E-1,-1.191000104E0,9.757950783E0,9.830926189E0
2.570980418E0,1.050000042E-1,-1.201050043E0,9.744000435E0,9.818303860E0
2.575774879E0,1.120500043E-1,-1.198050022E0,9.756000519E0,9.829924984E0
2.580567189E0,1.000500023E-1,-1.210050106E0,9.757950783E0,9.833200636E0
2.585360418E0,1.380000114E-1,-1.186050057E0,9.757950783E0,9.830735589E0
2.590153715E0,1.120500043E-1,-1.210050106E0,9.769950867E0,9.845238260E0
2.594948408E0,1.309500039E-1,-1.194000006E0,9.745950699E0,9.819691387E0
2.599740487E0,1.120500043E-1,-1.198050022E0,9.760950089E0,9.834837349E0
2.604533956E0,1.260000020E-1,-1.195950031E0,9.756000519E0,9.829838178E0
2.609327264E0,1.189500093E-1,-1.203000069E0,9.766050339E0,9.840584205E0
2.614121956E0,1.290000081E-1,-1.198050022E0,9.763050079E0,9.837129241E0
2.618914020E0,1.140000075E-1,-1.195950031E0,9.763050079E0,9.836688433E0
2.623707480E0,1.050000042E-1,-1.189050078E0,9.760950089E0,9.833667257E0
2.628500787E0,1.309500039E-1,-1.189050078E0,9.763050079E0,9.836062975E0
2.633295480E0,1.189500093E-1,-1.171950102E0,9.756000519E0,9.826859227E0
2.638087559E0,1.290000081E-1,-1.189050078E0,9.757950783E0,9.830975769E0
2.642881018E0,1.380000114E-1,-1.189050078E0,9.745950699E0,9.819187294E0
2.647674341E0,1.189500093E-1,-1.194000006E0,9.751049995E0,9.824599795E0
2.652468802E0,1.260000020E-1,-1.186050057E0,9.756000519E0,9.828638607E0
2.657261112E0,1.219500080E-1,-1.203000069E0,9.768000603E0,9.842556413E0
2.662054538E0,1.189500093E-1,-1.179000020E0,9.757950783E0,9.829638530E0
2.666847845E0,1.240500063E-1,-1.191000104E0,9.754050255E0,9.827276633E0
2.671642307E0,1.189500093E-1,-1.198050022E0,9.763050079E0,9.837002583E0
2.676434598E0,1.260000020E-1,-1.189050078E0,9.757950783E0,9.830936861E0
2.681228057E0,1.500000060E-1,-1.198050022E0,9.768000603E0,9.842340150E0
2.686021365E0,1.360500008E-1,-1.183950067E0,9.766050339E0,9.838495138E0
2.690815826E0,1.290000081E-1,-1.179000020E0,9.745950699E0,9.817852977E0
2.695608136E0,1.290000081E-1,-1.183950067E0,9.778050423E0,9.850312118E0
2.700401365E0,1.410000026E-1,-1.170000076E0,9.756000519E0,9.826918505E0
2.705194854E0,1.170000061E-1,-1.203000069E0,9.781949997E0,9.856340290E0
2.709989393E0,1.450500041E-1,-1.179000020E0,9.751049995E0,9.823138835E0
2.714781703E0,1.360500008E-1,-1.191000104E0,9.766050339E0,9.839346018E0
2.719575167E0,1.549500078E-1,-1.186050057E0,9.768000603E0,9.840963368E0
2.724368475E0,1.380000114E-1,-1.171950102E0,9.756000519E0,9.827108281E0
2.729162936E0,1.429500133E-1,-1.191000104E0,9.757950783E0,9.831404754E0
2.733955179E0,1.290000081E-1,-1.186050057E0,9.757950783E0,9.830613369E0
2.738748485E0,1.170000061E-1,-1.201050043E0,9.778050423E0,9.852232248E0
2.743541946E0,1.549500078E-1,-1.174050093E0,9.768000603E0,9.839524323E0
2.748336480E0,1.429500133E-1,-1.194000006E0,9.763050079E0,9.836829650E0
2.753128713E0,1.330500096E-1,-1.194000006E0,9.768000603E0,9.841604244E0
2.757922018E0,1.260000020E-1,-1.191000104E0,9.763050079E0,9.836234244E0
2.762715475E0,1.240500063E-1,-1.201050043E0,9.763050079E0,9.837431396E0
2.767510013E0,1.360500008E-1,-1.174050093E0,9.780000687E0,9.851158138E0
2.772302246E0,1.480500102E-1,-1.203000069E0,9.778050423E0,9.852887802E0
2.777095542E0,1.380000114E-1,-1.182000041E0,9.763050079E0,9.835309601E0
2.781889003E0,1.380000114E-1,-1.194000006E0,9.780000687E0,9.853582772E0
2.786683465E0,1.360500008E-1,-1.195950031E0,9.756000519E0,9.829972136E0
2.791475786E0,1.240500063E-1,-1.206000090E0,9.790050507E0,9.864832160E0
2.796269091E0,1.549500078E-1,-1.183950067E0,9.778050423E0,9.850686135E0
2.801062553E0,1.450500041E-1,-1.189050078E0,9.781949997E0,9.855020311E0
2.805857004E0,1.530000120E-1,-1.194000006E0,9.748950005E0,9.822986878E0
2.810649314E0,1.260000020E-1,-1.182000041E0,9.787050247E0,9.858973204E0
2.815442543E0,1.360500008E-1,-1.195950031E0,9.766050339E0,9.839946407E0
2.820236096E0,1.380000114E-1,-1.191000104E0,9.744000435E0,9.817487954E0
2.825030558E0,1.290000081E-1,-1.213050008E0,9.780000687E0,9.855787374E0
2.829822868E0,1.450500041E-1,-1.189050078E0,9.766050339E0,9.839238731E0
2.834616086E0,1.360500008E-1,-1.213050008E0,9.766050339E0,9.842039379E0
2.839409625E0,1.429500133E-1,-1.194000006E0,9.766050339E0,9.839807414E0
2.844204087E0,1.380000114E-1,-1.206000090E0,9.760950089E0,9.836138818E0
2.848996155E0,1.600500047E-1,-1.222050071E0,9.757950783E0,9.835477917E0
2.853789692E0,1.380000114E-1,-1.195950031E0,9.748950005E0,9.823001918E0
2.858582925E0,1.410000026E-1,-1.203000069E0,9.772950172E0,9.847722845E0
2.863377630E0,1.410000026E-1,-1.179000020E0,9.756000519E0,9.827994107E0
2.868169709E0,1.380000114E-1,-1.213050008E0,9.766050339E0,9.842066528E0
2.872963169E0,1.429500133E-1,-1.207950115E0,9.760950089E0,9.836448791E0
2.877756471E0,1.309500039E-1,-1.207950115E0,9.763050079E0,9.838365628E0
2.882551164E0,1.360500008E-1,-1.198050022E0,9.769950867E0,9.844073008E0
2.887343242E0,1.260000020E-1,-1.198050022E0,9.760950089E0,9.835006176E0
2.892136692E0,1.410000026E-1,-1.182000041E0,9.751049995E0,9.823440391E0
2.896930000E0,1.450500041E-1,-1.201050043E0,9.733950615E0,9.808840670E0
2.901724692E0,1.189500093E-1,-1.195950031E0,9.766050339E0,9.839724834E0
2.906516781E0,1.309500039E-1,-1.215000033E0,9.769950867E0,9.846081095E0
2.911310241E0,1.189500093E-1,-1.203000069E0,9.766050339E0,9.840584205E0
2.916103548E0,1.050000042E-1,-1.206000090E0,9.751049995E0,9.825906433E0
2.920898250E0,1.309500039E-1,-1.189050078E0,9.756000519E0,9.829065780E0
2.925690328E0,1.120500043E-1,-1.215000033E0,9.736950874E0,9.813103108E0
2.930483557E0,9.795000404E-2,-1.195950031E0,9.769950867E0,9.843364802E0
2.935277068E0,1.069500074E-1,-1.182000041E0,9.736950874E0,9.809014972E0
2.940071529E0,1.240500063E-1,-1.201050043E0,9.772950172E0,9.847256708E0
2.944863839E0,1.140000075E-1,-1.198050022E0,9.756000519E0,9.829947405E0
2.949657053E0,1.120500043E-1,-1.210050106E0,9.751049995E0,9.826482202E0
2.954450591E0,1.219500080E-1,-1.210050106E0,9.768000603E0,9.843420586E0
2.959245053E0,9.795000404E-2,-1.198050022E0,9.754050255E0,9.827838747E0
2.964037296E0,1.290000081E-1,-1.201050043E0,9.763050079E0,9.837495060E0
2.968830601E0,1.170000061E-1,-1.186050057E0,9.724950790E0,9.797707467E0
2.973624063E0,1.050000042E-1,-1.234050035E0,9.772950172E0,9.851114636E0
2.978418596E0,1.069500074E-1,-1.191000104E0,9.739050865E0,9.812187896E0
2.983210829E0,1.219500080E-1,-1.213050008E0,9.744000435E0,9.819974878E0
2.988004135E0,1.240500063E-1,-1.182000041E0,9.742050171E0,9.814278070E0
2.992797581E0,1.140000075E-1,-1.198050022E0,9.739050865E0,9.813125476E0
2.997592120E0,1.069500074E-1,-1.207950115E0,9.768000603E0,9.842988243E0
3.002384353E0,1.189500093E-1,-1.195950031E0,9.733950615E0,9.807866239E0
3.007177654E0,1.050000042E-1,-1.203000069E0,9.775050163E0,9.849357332E0
3.011971116E0,1.260000020E-1,-1.198050022E0,9.745950699E0,9.820119902E0
3.016765654E0,9.795000404E-2,-1.194000006E0,9.763050079E0,9.836278619E0
3.021557876E0,1.000500023E-1,-1.189050078E0,9.732000351E0,9.804880464E0
3.026351182E0,9.000000358E-2,-1.195950031E0,9.756000519E0,9.829442639E0
3.031144643E0,8.805000782E-2,-1.174050093E0,9.757950783E0,9.828720665E0
3.035939129E0,1.069500074E-1,-1.194000006E0,9.739050865E0,9.812552475E0
3.040731208E0,9.000000358E-2,-1.198050022E0,9.772950172E0,9.846521159E0
3.045524667E0,9.300000221E-2,-1.191000104E0,9.754050255E0,9.826933734E0
3.050318182E0,9.000000358E-2,-1.201050043E0,9.768000603E0,9.841974242E0
3.055112643E0,1.069500074E-1,-1.186050057E0,9.766050339E0,9.838388703E0
3.059904953E0,8.805000782E-2,-1.207950115E0,9.768000603E0,9.842801027E0
3.064698192E0,9.795000404E-2,-1.182000041E0,9.763050079E0,9.834829188E0
3.069491730E0,8.805000782E-2,-1.186050057E0,9.763050079E0,9.835223149E0
3.074286192E0,1.000500023E-1,-1.213050008E0,9.775050163E0,9.850538362E0
3.079078285E0,8.595000207E-2,-1.219950080E0,9.748950005E0,9.825359627E0
3.083871744E0,7.095000148E-2,-1.230000019E0,9.768000603E0,9.845393325E0
3.088665052E0,1.140000075E-1,-1.191000104E0,9.756000519E0,9.829090669E0
3.093459749E0,1.000500023E-1,-1.186050057E0,9.769950867E0,9.842188003E0
3.098251828E0,9.300000221E-2,-1.189050078E0,9.754050255E0,9.826697587E0
3.103045288E0,7.800000161E-2,-1.191000104E0,9.781949997E0,9.854496993E0
3.107838840E0,7.800000161E-2,-1.195950031E0,9.768000603E0,9.841250746E0
3.112633302E0,8.295000345E-2,-1.174050093E0,9.769950867E0,9.840590138E0
3.117425381E0,6.195000187E-2,-1.182000041E0,9.760950089E0,9.832451807E0
3.122218864E0,9.300000221E-2,-1.206000090E0,9.756000519E0,9.830698416E0
3.127012172E0,7.605000585E-2,-1.191000104E0,9.766050339E0,9.838699308E0
3.131806864E0,8.805000782E-2,-1.182000041E0,9.744000435E0,9.815825048E0
3.136598953E0,7.605000585E-2,-1.194000006E0,9.763050079E0,9.836084916E0
3.141392413E0,9.000000358E-2,-1.206000090E0,9.768000603E0,9.842579540E0
3.146185721E0,7.095000148E-2,-1.191000104E0,9.769950867E0,9.842532961E0
3.150980148E0,6.405000389E-2,-1.189050078E0,9.754050255E0,9.826466245E0
3.155772381E0,7.395000011E-2,-1.210050106E0,9.766050339E0,9.841007524E0
3.160565687E0,6.405000389E-2,-1.198050022E0,9.781949997E0,9.855250986E0
3.165359148E0,7.395000011E-2,-1.191000104E0,9.754050255E0,9.826771913E0
3.170153687E0,7.605000585E-2,-1.195950031E0,9.760950089E0,9.834237475E0
3.174945996E0,7.095000148E-2,-1.206000090E0,9.756000519E0,9.830514546E0
3.179739446E0,6.599999964E-2,-1.215000033E0,9.781949997E0,9.857338729E0
3.184532754E0,6.405000389E-2,-1.191000104E0,9.756000519E0,9.828638246E0
3.189327215E0,6.405000389E-2,-1.177050114E0,9.780000687E0,9.850784883E0
3.194119448E0,5.400000140E-2,-1.207950115E0,9.751049995E0,9.825733331E0
3.198912754E0,5.205000192E-2,-1.203000069E0,9.757950783E0,9.831964292E0
3.203706215E0,7.395000011E-2,-1.179000020E0,9.766050339E0,9.837237868E0
3.208500754E0,5.205000192E-2,-1.194000006E0,9.756000519E0,9.828931343E0
3.213292986E0,3.495000303E-2,-1.206000090E0,9.756000519E0,9.830320638E0
3.218086292E0,3.795000166E-2,-1.207950115E0,9.756000519E0,9.830571184E0
3.222879764E0,3.795000166E-2,-1.195950031E0,9.754050255E0,9.827168110E0
3.227674302E0,4.995000362E-2,-1.189050078E0,9.754050255E0,9.826384455E0
3.232466535E0,4.005000368E-2,-1.195950031E0,9.768000603E0,9.841023130E0
3.237259841E0,5.895000324E-2,-1.189050078E0,9.757950783E0,9.830306133E0
3.242053302E0,4.305000231E-2,-1.218000054E0,9.754050255E0,9.829896938E0
3.246847764E0,3.495000303E-2,-1.198050022E0,9.772950172E0,9.846171867E0
3.251640088E0,4.995000362E-2,-1.201050043E0,9.751049995E0,9.824866015E0
3.256433394E0,4.005000368E-2,-1.207950115E0,9.787050247E0,9.861394426E0
3.261226856E0,2.805000171E-2,-1.201050043E0,9.748950005E0,9.822694854E0
3.266021293E0,3.105000220E-2,-1.210050106E0,9.760950089E0,9.835717157E0
3.270813372E0,3.795000166E-2,-1.198050022E0,9.754050255E0,9.827423896E0
3.275606832E0,2.595000155E-2,-1.195950031E0,9.748950005E0,9.822066792E0
3.280400172E0,1.605000161E-2,-1.215000033E0,9.754050255E0,9.829444494E0
3.285194865E0,2.805000171E-2,-1.201050043E0,9.754050255E0,9.827756834E0
3.289987174E0,1.905000024E-2,-1.213050008E0,9.760950089E0,9.836056113E0
3.294780480E0,3.495000303E-2,-1.201050043E0,9.733950615E0,9.807830406E0
3.299573942E0,4.050000105E-3,-1.213050008E0,9.757950783E0,9.833062097E0
3.304368403E0,4.305000231E-2,-1.203000069E0,9.744000435E0,9.818075521E0
3.309160468E0,1.605000161E-2,-1.189050078E0,9.751049995E0,9.823292407E0
3.313953928E0,2.295000106E-2,-1.207950115E0,9.739050865E0,9.813703783E0
3.318747235E0,1.605000161E-2,-1.201050043E0,9.739050865E0,9.812843144E0
3.323541918E0,-1.950000064E-3,-1.219950080E0,9.754050255E0,9.830044678E0
3.328333997E0,2.805000171E-2,-1.198050022E0,9.751049995E0,9.824412790E0
3.333127456E0,3.299999982E-2,-1.203000069E0,9.745950699E0,9.819972158E0
3.337920745E0,9.000000544E-3,-1.186050057E0,9.754050255E0,9.825899049E0
3.342715437E0,1.950000064E-3,-1.206000090E0,9.751049995E0,9.825345594E0
3.347507516E0,7.050000131E-3,-1.210050106E0,9.748950005E0,9.823761864E0
3.352300976E0,-7.050000131E-3,-1.210050106E0,9.751049995E0,9.825845866E0
3.357094284E0,1.395000052E-2,-1.201050043E0,9.744000435E0,9.817752303E0
3.361888745E0,9.000000544E-3,-1.206000090E0,9.763050079E0,9.837258971E0
3.366681036E0,7.050000131E-3,-1.201050043E0,9.748950005E0,9.822657334E0
3.371474495E0,1.950000064E-3,-1.222050071E0,9.748950005E0,9.825244850E0
3.376267803E0,1.950000064E-3,-1.203000069E0,9.766050339E0,9.839865456E0
3.381062265E0,1.095000096E-2,-1.225050092E0,9.745950699E0,9.822648454E0
3.385854574E0,9.000000544E-3,-1.207950115E0,9.751049995E0,9.825589066E0
3.390647803E0,9.000000544E-3,-1.203000069E0,9.763050079E0,9.836891634E0
3.395441264E0,-9.000000544E-3,-1.219950080E0,9.763050079E0,9.838978913E0
3.400235802E0,-1.950000064E-3,-1.189050078E0,9.727050781E0,9.799457168E0
3.405028035E0,-1.605000161E-2,-1.203000069E0,9.748950005E0,9.822906543E0
3.409821351E0,0.000000000E0,-1.194000006E0,9.754050255E0,9.826857707E0
3.414614812E0,9.000000544E-3,-1.206000090E0,9.756000519E0,9.830262628E0
3.419409351E0,-1.200000010E-2,-1.206000090E0,9.769950867E0,9.844110938E0
3.424201564E0,-7.050000131E-3,-1.195950031E0,9.763050079E0,9.836030349E0
3.428994870E0,-4.050000105E-3,-1.210050106E0,9.768000603E0,9.842665972E0
3.433788332E0,-1.395000052E-2,-1.203000069E0,9.748950005E0,9.822903337E0
3.438582875E0,-1.950000064E-3,-1.231950045E0,9.768000603E0,9.845381683E0
3.443375108E0,1.950000064E-3,-1.194000006E0,9.744000435E0,9.816882616E0
3.448168414E0,-1.200000010E-2,-1.201050043E0,9.769950867E0,9.843505734E0
3.452961865E0,-1.605000161E-2,-1.207950115E0,9.733950615E0,9.808628633E0
3.457756327E0,-9.000000544E-3,-1.201050043E0,9.754050255E0,9.827720925E0
3.462548636E0,1.095000096E-2,-1.203000069E0,9.751049995E0,9.824983719E0
3.467341932E0,1.950000064E-3,-1.210050106E0,9.754050255E0,9.828820959E0
3.472135394E0,0.000000000E0,-1.203000069E0,9.769950867E0,9.843736542E0
3.476929855E0,-1.605000161E-2,-1.201050043E0,9.768000603E0,9.841575818E0
3.481721929E0,-7.050000131E-3,-1.201050043E0,9.760950089E0,9.834567481E0
3.486515389E0,4.050000105E-3,-1.182000041E0,9.769950867E0,9.841193039E0
3.491308927E0,-1.605000161E-2,-1.195950031E0,9.763050079E0,9.836040918E0
3.496103399E0,-1.200000010E-2,-1.198050022E0,9.756000519E0,9.829293666E0
3.500895478E0,-1.200000010E-2,-1.191000104E0,9.769950867E0,9.842284551E0
3.505688923E0,-1.395000052E-2,-1.201050043E0,9.766050339E0,9.839636936E0
3.510482231E0,-2.805000171E-2,-1.182000041E0,9.766050339E0,9.837359916E0
3.515276923E0,-2.400000021E-2,-1.191000104E0,9.766050339E0,9.838434655E0
3.520069002E0,-9.000000544E-3,-1.219950080E0,9.781949997E0,9.857733256E0
3.524862462E0,-7.050000131E-3,-1.207950115E0,9.754050255E0,9.828564980E0
3.529655769E0,-2.805000171E-2,-1.198050022E0,9.768000603E0,9.841237038E0
3.534450259E0,-1.605000161E-2,-1.195950031E0,9.751049995E0,9.824129992E0
3.539242569E0,-1.395000052E-2,-1.179000020E0,9.775050163E0,9.845904801E0
3.544036028E0,-1.200000010E-2,-1.195950031E0,9.756000519E0,9.829037929E0
3.548829346E0,-3.795000166E-2,-1.191000104E0,9.766050339E0,9.838478575E0
3.553624038E0,-4.305000231E-2,-1.210050106E0,9.768000603E0,9.842759285E0
3.558416117E0,-2.805000171E-2,-1.189050078E0,9.744000435E0,9.816321682E0
3.563209577E0,-2.400000021E-2,-1.194000006E0,9.778050423E0,9.850709725E0
3.568002884E0,-1.395000052E-2,-1.179000020E0,9.757950783E0,9.828928687E0
3.572797346E0,-4.500000179E-2,-1.183950067E0,9.766050339E0,9.837657342E0
3.577589642E0,-1.905000024E-2,-1.182000041E0,9.754050255E0,9.825425353E0
3.582382870E0,-2.805000171E-2,-1.174050093E0,9.754050255E0,9.824493717E0
3.587176332E0,-1.605000161E-2,-1.201050043E0,9.763050079E0,9.836662323E0
3.591970870E0,-1.905000024E-2,-1.183950067E0,9.748950005E0,9.820597072E0
3.596763103E0,-2.400000021E-2,-1.201050043E0,9.775050163E0,9.848588879E0
3.601556409E0,-1.605000161E-2,-1.183950067E0,9.732000351E0,9.803765919E0
3.606349884E0,-6.195000187E-2,-1.218000054E0,9.763050079E0,9.838928234E0
3.611144346E0,-2.400000021E-2,-1.179000020E0,9.742050171E0,9.813162517E0
3.615936656E0,-4.005000368E-2,-1.194000006E0,9.780000687E0,9.852697775E0
3.620729966E0,-2.100000158E-2,-1.198050022E0,9.772950172E0,9.846132232E0
3.625523428E0,-1.395000052E-2,-1.203000069E0,9.748950005E0,9.822903337E0
3.630317966E0,-2.400000021E-2,-1.191000104E0,9.772950172E0,9.845283760E0
3.635110208E0,-7.050000131E-3,-1.201050043E0,9.742050171E0,9.815809312E0
3.639903514E0,-4.995000362E-2,-1.195950031E0,9.760950089E0,9.834070272E0
3.644696975E0,-1.605000161E-2,-1.206000090E0,9.763050079E0,9.837267947E0
3.649491457E0,-3.600000218E-2,-1.201050043E0,9.751049995E0,9.824804997E0
3.654283767E0,-3.600000218E-2,-1.189050078E0,9.757950783E0,9.830195297E0
3.659077072E0,-2.805000171E-2,-1.191000104E0,9.748950005E0,9.821471083E0
3.663870538E0,-2.595000155E-2,-1.198050022E0,9.766050339E0,9.839295527E0
3.668665000E0,-2.805000171E-2,-1.191000104E0,9.744000435E0,9.816558079E0
3.673457078E0,-2.595000155E-2,-1.195950031E0,9.766050339E0,9.839040050E0
3.678250625E0,-1.605000161E-2,-1.183950067E0,9.733950615E0,9.805701909E0
3.683043858E0,-2.100000158E-2,-1.195950031E0,9.754050255E0,9.827117271E0
3.687838548E0,-1.200000010E-2,-1.179000020E0,9.760950089E0,9.831903767E0
3.692630636E0,-4.050000105E-3,-1.177050114E0,9.745950699E0,9.816772300E0
3.697424096E0,7.050000131E-3,-1.201050043E0,9.739050865E0,9.812832550E0
3.702217403E0,-7.050000131E-3,-1.215000033E0,9.763050079E0,9.838364785E0
3.707012096E0,-1.950000064E-3,-1.194000006E0,9.736950874E0,9.809885430E0
3.711804175E0,-1.605000161E-2,-1.195950031E0,9.769950867E0,9.842890532E0
3.716597634E0,4.050000105E-3,-1.177050114E0,9.748950005E0,9.819749975E0
3.721390942E0,-1.605000161E-2,-1.215000033E0,9.757950783E0,9.833315116E0
3.726185634E0,-4.050000105E-3,-1.218000054E0,9.748950005E0,9.824742578E0
3.730977713E0,-2.400000021E-2,-1.195950031E0,9.739050865E0,9.812236454E0
3.735771169E0,7.050000131E-3,-1.186050057E0,9.756000519E0,9.827833462E0
3.740564476E0,1.950000064E-3,-1.177050114E0,9.742050171E0,9.812899281E0
3.745358938E0,-1.395000052E-2,-1.189050078E0,9.769950867E0,9.842051343E0
3.750151262E0,-1.200000010E-2,-1.194000006E0,9.745950699E0,9.818825543E0
3.754944721E0,-9.000000544E-3,-1.215000033E0,9.757950783E0,9.833306136E0
3.759738029E0,-7.050000131E-3,-1.198050022E0,9.772950172E0,9.846112361E0
3.764532471E0,1.395000052E-2,-1.179000020E0,9.739050865E0,9.810165514E0
3.769324704E0,9.000000544E-3,-1.201050043E0,9.780000687E0,9.853477337E0
3.774118241E0,4.050000105E-3,-1.171950102E0,9.757950783E0,9.828076461E0
3.778911528E0,-1.395000052E-2,-1.198050022E0,9.769950867E0,9.843142709E0
3.783705990E0,1.095000096E-2,-1.201050043E0,9.744000435E0,9.817748499E0
3.788498223E0,4.050000105E-3,-1.201050043E0,9.744000435E0,9.817743228E0
3.793291524E0,-9.000000544E-3,-1.195950031E0,9.760950089E0,9.833947534E0
3.798084986E0,1.605000161E-2,-1.201050043E0,9.745950699E0,9.819691127E0
3.802879524E0,-4.050000105E-3,-1.203000069E0,9.780000687E0,9.853711940E0
3.807671776E0,1.395000052E-2,-1.198050022E0,9.751049995E0,9.824382651E0
3.812465082E0,1.395000052E-2,-1.201050043E0,9.754050255E0,9.827726705E0
3.817258543E0,2.805000171E-2,-1.198050022E0,9.760950089E0,9.834239029E0
3.822053005E0,-4.050000105E-3,-1.203000069E0,9.768000603E0,9.841801733E0
3.826845315E0,-7.050000131E-3,-1.206000090E0,9.784950256E0,9.858992719E0
3.831638620E0,1.605000161E-2,-1.198050022E0,9.733950615E0,9.807414340E0
3.836432067E0,-7.050000131E-3,-1.203000069E0,9.784950256E0,9.858626192E0
3.841226605E0,2.595000155E-2,-1.191000104E0,9.757950783E0,9.830399693E0
3.846018838E0,-7.050000131E-3,-1.198050022E0,9.751049995E0,9.824375276E0
3.850812135E0,1.905000024E-2,-1.195950031E0,9.784950256E0,9.857784279E0
3.855605596E0,3.299999982E-2,-1.195950031E0,9.751049995E0,9.824172306E0
3.860400058E0,9.000000544E-3,-1.194000006E0,9.778050423E0,9.850684600E0
3.865192117E0,2.805000171E-2,-1.186050057E0,9.727050781E0,9.799133556E0
3.869985653E0,1.905000024E-2,-1.207950115E0,9.760950089E0,9.835428461E0
3.874779115E0,2.100000158E-2,-1.194000006E0,9.775050163E0,9.847724748E0
3.879573562E0,1.095000096E-2,-1.182000041E0,9.751049995E0,9.822434526E0
3.884365641E0,2.805000171E-2,-1.182000041E0,9.766050339E0,9.837359916E0
3.889159101E0,7.050000131E-3,-1.213050008E0,9.756000519E0,9.831128427E0
3.893952385E0,2.295000106E-2,-1.206000090E0,9.772950172E0,9.847107087E0
3.898746846E0,1.905000024E-2,-1.179000020E0,9.768000603E0,9.838914560E0
3.903539156E0,1.395000052E-2,-1.195950031E0,9.748950005E0,9.822042419E0
3.908332615E0,1.905000024E-2,-1.194000006E0,9.766050339E0,9.838787432E0
3.913125923E0,4.005000368E-2,-1.182000041E0,9.745950699E0,9.817447893E0
3.917920615E0,2.100000158E-2,-1.198050022E0,9.766050339E0,9.839283718E0
3.922712684E0,2.805000171E-2,-1.183950067E0,9.756000519E0,9.827617752E0
3.927506144E0,3.105000220E-2,-1.189050078E0,9.790050507E0,9.862043050E0
3.932299452E0,3.299999982E-2,-1.194000006E0,9.778050423E0,9.850735763E0
3.937093893E0,4.500000179E-2,-1.167000055E0,9.760950089E0,9.830567672E0
3.941886203E0,3.495000303E-2,-1.207950115E0,9.780000687E0,9.854378642E0
3.946679662E0,4.695000127E-2,-1.183950067E0,9.744000435E0,9.815777429E0
3.951472975E0,1.605000161E-2,-1.194000006E0,9.780000687E0,9.852629448E0
3.956267437E0,6.195000187E-2,-1.194000006E0,9.763050079E0,9.835986004E0
3.961059669E0,2.805000171E-2,-1.195950031E0,9.775050163E0,9.847978928E0
3.965853206E0,4.695000127E-2,-1.198050022E0,9.754050255E0,9.827462772E0
3.970646439E0,3.105000220E-2,-1.189050078E0,9.751049995E0,9.823328367E0
3.975440975E0,4.695000127E-2,-1.198050022E0,9.790050507E0,9.863195075E0
3.980233208E0,4.005000368E-2,-1.195950031E0,9.739050865E0,9.812288838E0
3.985026514E0,4.500000179E-2,-1.191000104E0,9.790050507E0,9.862332136E0
3.989819975E0,4.695000127E-2,-1.182000041E0,9.748950005E0,9.820455926E0
3.994614442E0,3.105000220E-2,-1.198050022E0,9.790050507E0,9.863132204E0
3.999406751E0,6.405000389E-2,-1.183950067E0,9.748950005E0,9.820787461E0
4.004200057E0,5.895000324E-2,-1.191000104E0,9.760950089E0,9.833519359E0
4.008993518E0,4.305000231E-2,-1.189050078E0,9.754050255E0,9.826351803E0
4.013787979E0,6.599999964E-2,-1.210050106E0,9.766050339E0,9.840950995E0
4.018580289E0,6.195000187E-2,-1.174050093E0,9.763050079E0,9.833584203E0
4.023373595E0,6.195000187E-2,-1.213050008E0,9.745950699E0,9.821348337E0
4.028167056E0,5.895000324E-2,-1.170000076E0,9.763050079E0,9.833083043E0
4.032961518E0,9.000000358E-2,-1.198050022E0,9.769950867E0,9.843544270E0
4.037753814E0,6.599999964E-2,-1.203000069E0,9.754050255E0,9.828176918E0
4.042547119E0,7.605000585E-2,-1.189050078E0,9.757950783E0,9.830423550E0
4.047340581E0,6.900000572E-2,-1.177050114E0,9.780000687E0,9.850818311E0
4.052135042E0,8.100000024E-2,-1.194000006E0,9.766050339E0,9.839102410E0
4.056927121E0,7.395000011E-2,-1.182000041E0,9.756000519E0,9.827621219E0
4.061720581E0,9.795000404E-2,-1.189050078E0,9.751049995E0,9.823767623E0
4.066513889E0,8.295000345E-2,-1.207950115E0,9.766050339E0,9.840821277E0
4.071308350E0,8.295000345E-2,-1.191000104E0,9.739050865E0,9.811955651E0
4.076100660E0,8.295000345E-2,-1.162050009E0,9.772950172E0,9.842143872E0
4.080894157E0,8.100000024E-2,-1.183950067E0,9.766050339E0,9.837887882E0
4.085687465E0,8.295000345E-2,-1.174050093E0,9.756000519E0,9.826740072E0
4.090482157E0,6.900000572E-2,-1.189050078E0,9.772950172E0,9.845260594E0
4.095274169E0,8.100000024E-2,-1.195950031E0,9.742050171E0,9.815518275E0
4.100067706E0,6.900000572E-2,-1.189050078E0,9.787050247E0,9.859257256E0
4.104861014E0,9.795000404E-2,-1.182000041E0,9.736950874E0,9.808920972E0
4.109655494E0,8.805000782E-2,-1.201050043E0,9.792000771E0,9.865776863E0
4.114447804E0,1.140000075E-1,-1.183950067E0,9.733950615E0,9.806351428E0
4.119241263E0,9.000000358E-2,-1.194000006E0,9.778050423E0,9.851091619E0
4.124034571E0,1.020000055E-1,-1.165050030E0,9.756000519E0,9.825848141E0
4.128829033E0,8.595000207E-2,-1.203000069E0,9.768000603E0,9.842176200E0
4.133621270E0,1.000500023E-1,-1.189050078E0,9.778050423E0,9.850589838E0
4.138414576E0,1.120500043E-1,-1.191000104E0,9.748950005E0,9.822070181E0
4.143208038E0,8.100000024E-2,-1.203000069E0,9.769950867E0,9.844069794E0
4.148002600E0,9.495000541E-2,-1.171950102E0,9.748950005E0,9.819598196E0
4.152794833E0,9.300000221E-2,-1.186050057E0,9.772950172E0,9.845096181E0
4.157588139E0,1.170000061E-1,-1.182000041E0,9.748950005E0,9.821040642E0
4.162381609E0,1.020000055E-1,-1.195950031E0,9.763050079E0,9.836556681E0
4.167176071E0,1.099500060E-1,-1.194000006E0,9.757950783E0,9.831344186E0
4.171968380E0,1.189500093E-1,-1.194000006E0,9.766050339E0,9.839488012E0
4.176761706E0,1.099500060E-1,-1.210050106E0,9.769950867E0,9.845214584E0
4.181555168E0,1.260000020E-1,-1.179000020E0,9.736950874E0,9.808880129E0
4.186349629E0,1.069500074E-1,-1.203000069E0,9.772950172E0,9.847294174E0
4.191141943E0,1.140000075E-1,-1.183950067E0,9.763050079E0,9.835236683E0
4.195935249E0,9.300000221E-2,-1.177050114E0,9.756000519E0,9.827188921E0
4.200728710E0,1.240500063E-1,-1.195950031E0,9.768000603E0,9.841723460E0
4.205523158E0,1.240500063E-1,-1.159950018E0,9.781949997E0,9.851264802E0
4.210315467E0,9.795000404E-2,-1.183950067E0,9.756000519E0,9.828065836E0
4.215108773E0,1.219500080E-1,-1.183950067E0,9.768000603E0,9.840246203E0
4.219902009E0,1.170000061E-1,-1.182000041E0,9.742050171E0,9.814191491E0
4.224696701E0,9.795000404E-2,-1.201050043E0,9.787050247E0,9.860956746E0
4.229488780E0,1.189500093E-1,-1.183950067E0,9.766050339E0,9.838273532E0
4.234282249E0,1.099500060E-1,-1.201050043E0,9.775050163E0,9.849173361E0
4.239075556E0,1.360500008E-1,-1.179000020E0,9.763050079E0,9.834922343E0
4.243870249E0,1.050000042E-1,-1.198050022E0,9.745950699E0,9.819872906E0
4.248662319E0,9.000000358E-2,-1.183950067E0,9.772950172E0,9.844815531E0
4.253455778E0,1.380000114E-1,-1.158000112E0,9.748950005E0,9.818453771E0
4.258249086E0,1.020000055E-1,-1.194000006E0,9.781949997E0,9.855079186E0
4.263043561E0,1.450500041E-1,-1.183950067E0,9.768000603E0,9.840559590E0
4.267835794E0,1.140000075E-1,-1.195950031E0,9.772950172E0,9.846514487E0
4.272629331E0,1.050000042E-1,-1.171950102E0,9.784950256E0,9.855442332E0
4.277422578E0,4.500000179E-2,-1.106999993E0,9.712950706E0,9.775933992E0
4.282217115E0,7.095000148E-2,-1.177050114E0,9.799050331E0,9.869745096E0
4.287009348E0,7.800000161E-2,-1.119000077E0,9.792000771E0,9.856039989E0
4.291802898E0,8.805000782E-2,-1.138950109E0,9.760950089E0,9.827568712E0
4.296596131E0,5.700000376E-2,-1.150950074E0,9.744000435E0,9.811904991E0
4.301390667E0,6.405000389E-2,-1.135950089E0,9.745950699E0,9.812137383E0
4.306182871E0,7.605000585E-2,-1.123950005E0,9.813000679E0,9.877450559E0
4.310976177E0,3.495000303E-2,-1.141050100E0,9.712950706E0,9.779807169E0
4.315769638E0,3.299999982E-2,-1.098000050E0,9.793950081E0,9.855361551E0
4.320564201E0,7.605000585E-2,-1.158000112E0,9.787050247E0,9.855612635E0
4.325356434E0,3.795000166E-2,-1.106999993E0,9.756000519E0,9.818677880E0
4.330149739E0,-1.905000024E-2,-1.106999993E0,9.769950867E0,9.832484519E0
4.334943191E0,1.095000096E-2,-1.126950026E0,9.757950783E0,9.822817302E0
4.339737653E0,1.395000052E-2,-1.105050087E0,9.811050415E0,9.873096806E0
4.344529962E0,2.295000106E-2,-1.110000014E0,9.763050079E0,9.825974434E0
4.349323288E0,1.905000024E-2,-1.106999993E0,9.769950867E0,9.832484519E0
4.354116749E0,4.995000362E-2,-1.087950110E0,9.781949997E0,9.842391792E0
4.358911211E0,7.605000585E-2,-1.138950109E0,9.757950783E0,9.824489525E0
4.363703294E0,9.000000358E-2,-1.095000029E0,9.792000771E0,9.853446308E0
4.368496754E0,6.900000572E-2,-1.102950096E0,9.756000519E0,9.818391214E0
4.373290061E0,6.195000187E-2,-1.090950012E0,9.760950089E0,9.821922234E0
4.378084745E0,2.939999998E-1,-7.290000319E-1,9.616950035E0,9.649020936E0
4.382876823E0,3.709500134E-1,-5.020500422E-1,1.000995064E1,1.002939529E1
4.387670283E0,4.005000368E-2,-7.219500542E-1,9.916050911E0,9.942378063E0
4.392463606E0,1.600500047E-1,-4.270500243E-1,9.682050705E0,9.692785646E0
4.397258298E0,3.349500299E-1,-2.430000156E-1,1.007895088E1,1.008744226E1
4.402050377E0,-5.700000376E-2,-3.600000143E-1,1.000305080E1,1.000968903E1
4.406843823E0,1.219500080E-1,-1.810500026E-1,9.775050163E0,9.777487234E0
4.411637130E0,2.805000171E-2,-1.540500075E-1,9.837000847E0,9.838246992E0
4.416431592E0,4.500000179E-2,-6.300000101E-2,1.014900017E1,1.014929546E1
4.421223902E0,0.000000000E0,-1.039500013E-1,9.778050423E0,9.778602951E0
4.426017361E0,-1.605000161E-2,6.495000422E-2,1.003605080E1,1.003627380E1
4.430810669E0,6.195000187E-2,1.770000011E-1,1.002195072E1,1.002370506E1
4.435605130E0,1.219500080E-1,5.719500184E-1,9.853950500E0,9.871288624E0
4.440397440E0,-6.195000187E-2,8.190000653E-1,1.000305080E1,1.003671382E1
4.445190669E0,-8.595000207E-2,9.550500512E-1,1.007400036E1,1.011953513E1
4.449984120E0,1.950000064E-3,1.104000092E0,1.000005054E1,1.006080667E1
4.454778659E0,-3.105000220E-2,1.245000005E0,1.005795002E1,1.013475938E1
4.459570892E0,-5.505000427E-2,1.282950044E0,1.014405060E1,1.022500630E1
4.464364187E0,1.095000096E-2,1.264050007E0,1.006695080E1,1.014600614E1
4.469157649E0,-1.395000052E-2,1.273950100E0,1.006500053E1,1.014531316E1
4.473952110E0,-1.200000010E-2,1.324050069E0,1.007205009E1,1.015871280E1
4.478744420E0,-2.595000155E-2,1.324050069E0,1.011795044E1,1.020424927E1
4.483537726E0,-3.600000218E-2,1.360050082E0,1.012200069E1,1.021302748E1
4.488331187E0,-9.000000544E-3,1.341000080E0,1.012200069E1,1.021044858E1
4.493125630E0,-9.105000645E-2,1.293000102E0,1.027800083E1,1.035941313E1
4.497917940E0,-1.840500087E-1,1.333950043E0,1.027305031E1,1.036092948E1
4.502711245E0,-1.260000020E-1,1.389000058E0,1.016505051E1,1.026028503E1
4.507504461E0,-1.939500123E-1,1.426950097E0,1.014900017E1,1.025065889E1
4.512299153E0,-3.180000186E-1,1.420050025E0,1.023495007E1,1.033788513E1
4.517091232E0,-2.890500128E-1,1.386000037E0,1.021605015E1,1.031369122E1
4.521884697E0,-3.640500307E-1,1.339050055E0,1.012005043E1,1.021474465E1
4.526678005E0,-4.740000367E-1,1.315050006E0,1.015095043E1,1.024674715E1
4.531472697E0,-4.999500215E-1,1.267050028E0,1.016805077E1,1.025888016E1
4.536264757E0,-4.780500233E-1,1.309950113E0,1.008600044E1,1.018194019E1
4.541058216E0,-5.340000391E-1,1.357950091E0,1.004805088E1,1.015344823E1
4.545851524E0,-5.770500302E-1,1.390950084E0,1.011795044E1,1.022940125E1
4.550646225E0,-6.030000448E-1,1.441950083E0,1.013205051E1,1.025189137E1
4.555438304E0,-6.390000582E-1,1.468050122E0,1.017705059E1,1.030222553E1
4.560231764E0,-6.559500098E-1,1.522950053E0,1.028295040E1,1.041579168E1
4.565025058E0,-6.960000396E-1,1.614000082E0,1.029000092E1,1.043903880E1
4.569819519E0,-6.799500585E-1,1.663950086E0,1.024905014E1,1.040548369E1
4.574611829E0,-6.049500108E-1,1.734000087E0,1.027305031E1,1.043591316E1
4.579405283E0,-5.119500160E-1,1.839000106E0,1.029900074E1,1.047441791E1
4.584198591E0,-4.780500233E-1,1.935000062E0,1.036200047E1,1.055195767E1
4.588993053E0,-5.340000391E-1,1.999050140E0,1.041405010E1,1.061761730E1
4.593785280E0,-5.790000558E-1,2.065950155E0,1.048395061E1,1.070124346E1
4.598578586E0,-5.980500579E-1,2.128950119E0,1.045005035E1,1.068146268E1
4.603372048E0,-5.650500059E-1,2.191050053E0,1.037895012E1,1.062273917E1
4.608166514E0,-4.710000157E-1,2.257950068E0,1.028505039E1,1.054051427E1
4.612958824E0,-4.429500103E-1,2.265000105E0,1.040700054E1,1.065983539E1
4.617752130E0,-5.170500278E-1,2.256000042E0,1.029495049E1,1.055191368E1
4.622545575E0,-6.100500226E-1,2.185950041E0,1.060095024E1,1.084115698E1
4.627340037E0,-6.750000119E-1,2.220000029E0,1.069695091E1,1.094571989E1
4.632132346E0,-6.679500341E-1,2.269950151E0,1.018695068E1,1.045814492E1
4.636925652E0,-6.010500193E-1,2.137950182E0,1.048395061E1,1.071659053E1
4.641718883E0,-5.719500184E-1,2.074050188E0,1.052205086E1,1.073975629E1
4.646513575E0,-5.670000315E-1,2.040000200E0,1.021800041E1,1.043506695E1
4.651305669E0,-6.250500083E-1,1.807950139E0,1.068705082E1,1.085690685E1
4.656099129E0,-6.409500241E-1,1.963050127E0,1.031400013E1,1.051869675E1
4.660892436E0,-6.010500193E-1,1.774050117E0,1.039500046E1,1.056241210E1
4.665687119E0,-5.380499959E-1,1.765050054E0,1.066605091E1,1.082448805E1
4.670479198E0,-5.020500422E-1,1.831950068E0,1.011000061E1,1.028689495E1
4.675272734E0,-5.430000424E-1,1.554000020E0,1.067295074E1,1.079915009E1
4.680065977E0,-4.230000079E-1,1.626000047E0,1.053405094E1,1.066719431E1
4.684860667E0,-5.239500403E-1,1.554000020E0,1.027995014E1,1.040993826E1
4.689652746E0,-5.410500169E-1,1.288050056E0,1.089300060E1,1.098222519E1
4.694446220E0,-4.350000322E-1,1.473000050E0,1.020405006E1,1.031899181E1
4.699239527E0,-4.930500090E-1,1.165950060E0,1.064205074E1,1.071707898E1
4.704033989E0,-3.559500277E-1,1.120950103E0,1.064400005E1,1.070877989E1
4.708826299E0,-3.730500042E-1,1.063050032E0,1.026405048E1,1.032569484E1
4.713619758E0,-3.349500299E-1,8.410500288E-1,1.074495029E1,1.078301968E1
4.718413066E0,-2.560500205E-1,8.670000434E-1,1.031595039E1,1.035548566E1
4.723207523E0,-3.829500079E-1,6.490500569E-1,1.061805058E1,1.064475996E1
4.727999755E0,-2.770500183E-1,7.090500593E-1,1.033800030E1,1.036599049E1
4.732793061E0,-3.300000131E-1,4.410000145E-1,1.060605049E1,1.062034312E1
4.737586571E0,-2.170500159E-1,4.099500179E-1,1.034295082E1,1.035334735E1
4.742381109E0,-1.939500123E-1,1.770000011E-1,1.049295044E1,1.049623526E1
4.747173342E0,-1.050000042E-1,3.405000269E-2,1.035705090E1,1.035763910E1
4.751966639E0,-1.605000161E-2,-1.469999999E-1,1.032795048E1,1.032900904E1
4.756760100E0,8.805000782E-2,-3.460500240E-1,1.048095036E1,1.048703122E1
4.761554562E0,3.250500262E-1,-3.720000088E-1,1.018200016E1,1.019397708E1
4.766346880E0,4.519500136E-1,-6.570000052E-1,1.044795036E1,1.047833835E1
4.771140186E0,6.889500618E-1,-7.170000076E-1,1.024005032E1,1.028821518E1
4.775933648E0,8.659500480E-1,-9.060000181E-1,1.011300087E1,1.019036271E1
4.780728076E0,9.790500402E-1,-1.110000014E0,1.027995014E1,1.038595272E1
4.785520155E0,1.033950090E0,-1.146000028E0,1.001700020E1,1.013521888E1
4.790313692E0,9.550500512E-1,-1.174050093E0,9.931050301E0,1.004570925E1
4.795106952E0,8.809500337E-1,-1.207950115E0,1.007895088E1,1.018923291E1
4.799901643E0,9.160500169E-1,-1.122000098E0,9.772950172E0,9.879705812E0
4.804693722E0,1.030950069E0,-1.246050000E0,1.015800095E1,1.028593612E1
4.809487181E0,9.979500771E-1,-1.225050092E0,1.006200027E1,1.018530813E1
4.814280489E0,9.379500151E-1,-1.198050022E0,9.889950752E0,1.000630801E1
4.819075181E0,9.160500169E-1,-1.267950058E0,1.010595036E1,1.022629344E1
4.823867256E0,8.760000467E-1,-1.263000011E0,9.957000732E0,1.007493964E1
4.828660716E0,8.689500690E-1,-1.213050008E0,9.873000145E0,9.985123755E0
4.833454023E0,8.419500589E-1,-1.342050076E0,1.005000019E1,1.017410842E1
4.838248475E0,8.520000577E-1,-1.287000060E0,1.008405018E1,1.020148721E1
4.843040785E0,7.630500197E-1,-1.294050097E0,9.883050919E0,9.996574736E0
4.847834244E0,8.299500346E-1,-1.344000101E0,9.883050919E0,1.000848884E1
4.852627562E0,8.329500556E-1,-1.330050111E0,9.913950920E0,1.003739318E1
4.857422023E0,7.900500298E-1,-1.435050011E0,9.969000816E0,1.010269889E1
4.862214333E0,7.699500322E-1,-1.366050124E0,9.703050613E0,9.828942324E0
4.867007793E0,7.870500088E-1,-1.414050102E0,9.856950760E0,9.988917043E0
4.871801100E0,8.329500556E-1,-1.368000031E0,9.733950615E0,9.864837781E0
4.876595562E0,8.299500346E-1,-1.411050081E0,9.651000023E0,9.788854930E0
4.881387858E0,8.299500346E-1,-1.476000071E0,9.853950500E0,9.998386557E0
4.886181086E0,7.939500213E-1,-1.366050124E0,9.541050911E0,9.670992817E0
4.890974548E0,8.280000687E-1,-1.435050011E0,9.720000267E0,9.860190558E0
4.895769033E0,8.970000148E-1,-1.330050111E0,9.511950493E0,9.646286565E0
4.900561343E0,9.330000281E-1,-1.371000051E0,9.643050194E0,9.784607669E0
4.905354649E0,9.859500527E-1,-1.251000047E0,9.696000099E0,9.825961355E0
4.910148115E0,9.330000281E-1,-1.222050071E0,9.627000809E0,9.749002000E0
4.914942577E0,1.029000044E0,-1.171950102E0,9.781949997E0,9.905496145E0
4.919734887E0,1.065000057E0,-1.099950075E0,9.603000641E0,9.724285917E0
4.924528192E0,1.069950104E0,-1.198050022E0,9.967050552E0,1.009565321E1
4.929321423E0,1.120050073E0,-1.009050012E0,9.514050484E0,9.632748865E0
4.934116115E0,1.162950039E0,-1.063950062E0,9.648000717E0,9.775907138E0
4.938908203E0,1.231950045E0,-1.087950110E0,9.772950172E0,9.910191291E0
4.943701663E0,1.162950039E0,-1.150950074E0,9.763050079E0,9.899206318E0
4.948494971E0,1.174950004E0,-1.063950062E0,9.615000725E0,9.744779945E0
4.953289706E0,1.189050078E0,-1.155000091E0,9.547950745E0,9.690780604E0
4.958081785E0,1.266000032E0,-1.170000076E0,9.495000839E0,9.650217469E0
4.962875244E0,1.219950080E0,-1.275000095E0,9.636000633E0,9.796244773E0
4.967668528E0,1.173000097E0,-1.231950045E0,9.538050652E0,9.688552027E0
4.972462990E0,1.180050015E0,-1.275000095E0,9.373050690E0,9.532692301E0
4.977255299E0,1.255950093E0,-1.261050105E0,9.447000504E0,9.613192837E0
4.982048750E0,1.246950030E0,-1.255950093E0,9.355950356E0,9.521874924E0
4.986842058E0,1.198950052E0,-1.264950037E0,9.445050240E0,9.604506955E0
4.991636519E0,1.108050108E0,-1.395000100E0,9.583950043E0,9.748122832E0
4.996428752E0,1.129950047E0,-1.267950058E0,9.198000908E0,9.353486257E0
5.001222058E0,1.101000071E0,-1.416000009E0,9.406050682E0,9.575544194E0
5.006015519E0,1.150950074E0,-1.483050108E0,9.574050903E0,9.756360715E0
5.010810072E0,1.120050073E0,-1.476000071E0,9.411000252E0,9.591663782E0
5.015602305E0,1.090950012E0,-1.504950047E0,9.379950523E0,9.562349000E0
5.020395610E0,1.065000057E0,-1.537950039E0,9.421050072E0,9.604983076E0
5.025189062E0,1.074000001E0,-1.555050015E0,9.454050064E0,9.641095330E0
5.029983600E0,1.086000085E0,-1.558050036E0,9.330000877E0,9.521335645E0
5.034775833E0,1.125000000E0,-1.588950038E0,9.277050018E0,9.479137317E0
5.039569130E0,1.158000112E0,-1.612950087E0,9.301050186E0,9.510631252E0
5.044362591E0,1.110000014E0,-1.699050069E0,9.447000504E0,9.662540540E0
5.049157053E0,1.084050059E0,-1.675050020E0,9.367950439E0,9.578071441E0
5.053949132E0,1.045950055E0,-1.629000068E0,9.181050301E0,9.382927974E0
5.058742668E0,1.060050011E0,-1.657950044E0,9.181050301E0,9.389578744E0
5.063536130E0,9.829500318E-1,-1.849950075E0,9.639000893E0,9.864017653E0
5.068330610E0,1.039050102E0,-1.632000089E0,9.010950089E0,9.216304623E0
5.073122920E0,1.101000071E0,-1.737000108E0,9.076050758E0,9.306130662E0
5.077916226E0,1.165050030E0,-1.705950022E0,9.234000206E0,9.462260134E0
5.082709451E0,1.201050043E0,-1.687050104E0,9.217050552E0,9.446834398E0
5.087504143E0,1.174950004E0,-1.615050077E0,9.406050682E0,9.615751853E0
5.092296222E0,1.039050102E0,-1.572000027E0,9.382050514E0,9.569413830E0
5.097089681E0,1.141050100E0,-1.576950073E0,9.438000679E0,9.636629270E0
5.101882989E0,1.177050114E0,-1.435050011E0,9.291000366E0,9.474571405E0
5.106677451E0,1.180050015E0,-1.435050011E0,9.169050217E0,9.355392480E0
5.111469760E0,1.234950066E0,-1.416000009E0,9.391950607E0,9.578042279E0
5.116263220E0,1.122000098E0,-1.447050095E0,9.367950439E0,9.545225698E0
5.121056519E0,1.077000022E0,-1.440000057E0,9.475950241E0,9.645058952E0
5.125850980E0,1.072050095E0,-1.452000022E0,9.378000259E0,9.550103891E0
5.130643290E0,1.093950033E0,-1.495050073E0,9.294000626E0,9.476832225E0
5.135436519E0,1.138950109E0,-1.476000071E0,9.319950104E0,9.504591180E0
5.140229980E0,1.102950096E0,-1.522050023E0,9.247950554E0,9.437040036E0
5.145024519E0,1.141050100E0,-1.536000013E0,9.274950027E0,9.470268707E0
5.149816736E0,1.117950082E0,-1.519050121E0,9.193050385E0,9.384535206E0
5.154610042E0,1.030950069E0,-1.512000084E0,9.117000580E0,9.298854869E0
5.159403504E0,1.029000044E0,-1.504950047E0,9.141000748E0,9.321030544E0
5.164197965E0,1.065000057E0,-1.476000071E0,9.186000824E0,9.364582877E0
5.168990275E0,1.062000036E0,-1.498050094E0,9.211950302E0,9.393190434E0
5.173783581E0,9.930000305E-1,-1.507050037E0,9.342000008E0,9.514736624E0
5.178576995E0,9.910500646E-1,-1.513950109E0,9.397050858E0,9.569680767E0
5.183371457E0,1.030950069E0,-1.492950082E0,9.270000458E0,9.445880927E0
5.188163766E0,9.499500394E-1,-1.543050051E0,9.226950645E0,9.403192370E0
5.192957058E0,9.670500755E-1,-1.558050036E0,9.343950272E0,9.522190528E0
5.197750289E0,8.850000501E-1,-1.567050099E0,9.349050522E0,9.520694132E0
5.202544981E0,8.970000148E-1,-1.572000027E0,9.346950531E0,9.520571272E0
5.207337074E0,8.850000501E-1,-1.552950025E0,9.472949982E0,9.640106857E0
5.212130534E0,8.280000687E-1,-1.579050064E0,9.496950150E0,9.662869417E0
5.216923841E0,8.230500221E-1,-1.585950017E0,9.529050827E0,9.695125500E0
5.221718293E0,8.400000334E-1,-1.584000111E0,9.490050316E0,9.657935152E0
5.226510603E0,8.449500203E-1,-1.593000054E0,9.430050850E0,9.600908746E0
5.231304062E0,7.920000553E-1,-1.633950114E0,9.478050232E0,9.650414150E0
5.236097366E0,7.459500432E-1,-1.629000068E0,9.483000755E0,9.650771265E0
5.240891827E0,7.680000067E-1,-1.663050056E0,9.568950653E0,9.742708869E0
5.245684137E0,7.609500289E-1,-1.617000103E0,9.508950233E0,9.675426028E0
5.250477611E0,6.960000396E-1,-1.663050056E0,9.559950829E0,9.728453700E0
5.255270843E0,7.110000253E-1,-1.672050118E0,9.643050194E0,9.812731000E0
5.260065380E0,7.110000253E-1,-1.644000053E0,9.526050568E0,9.692981823E0
5.264857631E0,7.200000286E-1,-1.677000046E0,9.568950653E0,9.741434483E0
5.269650936E0,6.960000396E-1,-1.699050069E0,9.583950043E0,9.758241932E0
5.274444398E0,6.360000372E-1,-1.672050118E0,9.607950211E0,9.773072950E0
5.279238851E0,6.150000095E-1,-1.675050020E0,9.639000893E0,9.802772862E0
5.284031160E0,5.959500074E-1,-1.668000102E0,9.643050194E0,9.804376461E0
5.288824466E0,6.310500503E-1,-1.627050042E0,9.628950119E0,9.785816082E0
5.293617900E0,6.630000472E-1,-1.600950122E0,9.583950043E0,9.739338210E0
5.298412361E0,6.480000019E-1,-1.584000111E0,9.541050911E0,9.693328264E0
5.303204671E0,6.289500594E-1,-1.570050120E0,9.652950287E0,9.800004326E0
5.307997884E0,6.270000339E-1,-1.537950039E0,9.675000191E0,9.816519141E0
5.312791191E0,6.310500503E-1,-1.531050086E0,9.715050697E0,9.855178770E0
5.317585884E0,6.169500351E-1,-1.537950039E0,9.804000854E0,9.943055387E0
5.322377962E0,6.079500318E-1,-1.536000013E0,9.808950424E0,9.947080361E0
5.327171422E0,5.839500427E-1,-1.555050015E0,9.852000237E0,9.991050338E0
5.331964730E0,6.270000339E-1,-1.510050058E0,9.793950081E0,9.929493361E0
5.336759182E0,6.270000339E-1,-1.512000084E0,9.817950249E0,9.953462733E0
5.341551492E0,6.120000482E-1,-1.462050080E0,9.811050415E0,9.938251594E0
5.346344952E0,6.390000582E-1,-1.404000044E0,9.648000717E0,9.770540161E0
5.351138263E0,5.959500074E-1,-1.438050032E0,1.007700062E1,1.019652322E1
5.355932956E0,5.500500202E-1,-1.375950098E0,9.940050125E0,1.004989503E1
5.360725035E0,5.359500051E-1,-1.288950086E0,9.508950233E0,9.610867249E0
5.365518480E0,6.079500318E-1,-1.366050124E0,9.916050911E0,1.002814848E1
5.370311713E0,5.380499959E-1,-1.354050040E0,1.000500011E1,1.011053790E1
5.375106249E0,5.569500327E-1,-1.240950108E0,9.684000015E0,9.779059607E0
5.379898472E0,4.930500090E-1,-1.371000051E0,1.006695080E1,1.017183552E1
5.384691778E0,4.300500154E-1,-1.324950099E0,1.008195019E1,1.017772840E1
5.389485239E0,4.500000179E-1,-1.335000038E0,9.979050636E0,1.007800460E1
5.394279778E0,4.020000100E-1,-1.423050046E0,1.033800030E1,1.044322391E1
5.399072011E0,4.110000134E-1,-1.255950093E0,9.664950371E0,9.754875566E0
5.403865316E0,3.420000076E-1,-1.438050032E0,1.028805065E1,1.039369704E1
5.408658797E0,3.420000076E-1,-1.276950002E0,9.949950218E0,1.003738386E1
5.413453258E0,3.060000241E-1,-1.243950009E0,9.832950592E0,9.916045834E0
5.418245568E0,2.680500150E-1,-1.372950077E0,1.043100071E1,1.052438210E1
5.423038797E0,2.460000068E-1,-1.179000020E0,9.703050613E0,9.777512376E0
5.427832105E0,2.029500157E-1,-1.428000093E0,1.045800018E1,1.055699488E1
5.432626797E0,1.360500008E-1,-1.276950002E0,1.005000019E1,1.013171332E1
5.437419093E0,2.100000083E-1,-1.294050097E0,9.865950584E0,9.952670325E0
5.442212398E0,8.295000345E-2,-1.522050023E0,1.059600067E1,1.070508044E1
5.447005860E0,1.260000020E-1,-1.227000117E0,9.687000275E0,9.765212727E0
5.451800345E0,1.189500093E-1,-1.459050059E0,1.021095085E1,1.031535232E1
5.456592424E0,-4.695000127E-2,-1.501950026E0,1.051995087E1,1.062673160E1
5.461385884E0,4.500000179E-2,-1.287000060E0,9.600000381E0,9.685989959E0
5.466179192E0,-3.795000166E-2,-1.564950109E0,1.059405041E1,1.070908087E1
5.470973884E0,-1.410000026E-1,-1.402050018E0,1.027305031E1,1.036924240E1
5.475765963E0,2.805000171E-2,-1.372950077E0,9.808950424E0,9.904609389E0
5.480559173E0,-1.840500087E-1,-1.555050015E0,1.077105045E1,1.088428146E1
5.485352711E0,-9.495000541E-2,-1.234050035E0,9.817950249E0,9.895657739E0
5.490147173E0,-1.150500029E-1,-1.495050073E0,1.045005035E1,1.055708121E1
5.494939501E0,-2.130000144E-1,-1.320000052E0,1.057500076E1,1.065919370E1
5.499732961E0,-8.100000024E-2,-1.249050021E0,9.813000679E0,9.892505713E0
5.504526194E0,-2.850000262E-1,-1.536000013E0,1.085295010E1,1.096480948E1
5.509320754E0,-2.580000162E-1,-1.251000047E0,1.011000061E1,1.019037180E1
5.514112987E0,-1.150500029E-1,-1.294050097E0,1.010295010E1,1.018613778E1
5.518906293E0,-4.069500268E-1,-1.450050116E0,1.085700035E1,1.096096302E1
5.523699763E0,-1.890000105E-1,-1.179000020E0,9.933000565E0,1.000451210E1
5.528494302E0,-1.120500043E-1,-1.195950031E0,1.041705036E1,1.048607600E1
5.533286534E0,-3.970500231E-1,-1.311000109E0,1.081905079E1,1.090542204E1
5.538079855E0,-1.530000120E-1,-1.071000099E0,1.004295063E1,1.010105478E1
5.542873317E0,-2.080500126E-1,-1.106999993E0,1.039500046E1,1.045584852E1
5.547667778E0,-4.660500288E-1,-1.282050014E0,1.072605038E1,1.081244707E1
5.552460070E0,-1.939500123E-1,-1.014000058E0,1.010295010E1,1.015556071E1
5.557253376E0,-2.490000129E-1,-1.039950013E0,1.031400013E1,1.036928617E1
5.562046837E0,-4.690500200E-1,-1.332000017E0,1.086900043E1,1.096035594E1
5.566841303E0,-1.980000138E-1,-1.009050012E0,1.017495060E1,1.022677885E1
5.571633382E0,-2.290500104E-1,-1.003950000E0,1.012005043E1,1.017230555E1
5.576426841E0,-4.759500325E-1,-1.348950028E0,1.101795006E1,1.111041935E1
5.581220140E0,-2.629500031E-1,-9.610500336E-1,1.018695068E1,1.023556174E1
5.586014602E0,-2.680500150E-1,-9.280500412E-1,1.002900028E1,1.007541435E1
5.590806911E0,-5.599500537E-1,-1.240950108E0,1.104705048E1,1.113062556E1
5.595600361E0,-3.160500228E-1,-8.749500513E-1,1.017000008E1,1.021245939E1
5.600393668E0,-2.700000107E-1,-9.090000391E-1,1.008195019E1,1.012644561E1
5.605188130E0,-5.290500522E-1,-1.230000019E0,1.101495075E1,1.109603236E1
5.609980454E0,-2.170500159E-1,-8.320500255E-1,9.943050385E0,9.980163771E0
5.614773913E0,-4.090500176E-1,-1.062000036E0,1.055100060E1,1.061219956E1
5.619567146E0,-5.790000558E-1,-1.099950075E0,1.066305065E1,1.073525875E1
5.624361683E0,-3.250500262E-1,-8.749500513E-1,1.006695080E1,1.011012826E1
5.629153915E0,-6.439500451E-1,-1.225050092E0,1.097700024E1,1.106390318E1
5.633947221E0,-4.710000157E-1,-8.940000534E-1,1.003605080E1,1.008679298E1
5.638740674E0,-5.790000558E-1,-1.218000054E0,1.082895088E1,1.091260475E1
5.643535212E0,-5.430000424E-1,-9.660000205E-1,1.031100082E1,1.037037816E1
5.648327445E0,-5.100000501E-1,-1.129050016E0,1.027305031E1,1.034748359E1
5.653120770E0,-6.270000339E-1,-1.183950067E0,1.081395054E1,1.089662301E1
5.657914231E0,-5.740500093E-1,-9.970500469E-1,9.897000313E0,9.963646792E0
5.662708693E0,-7.060500383E-1,-1.306050062E0,1.086195087E1,1.096294897E1
5.667501011E0,-6.480000019E-1,-1.033050060E0,1.029000092E1,1.036200826E1
5.672294317E0,-6.990000606E-1,-1.170000076E0,1.024005032E1,1.033035003E1
5.677087548E0,-7.710000277E-1,-1.246050000E0,1.080900097E1,1.090786797E1
5.681882226E0,-7.150500417E-1,-1.093050003E0,1.012005043E1,1.020399312E1
5.686674305E0,-7.249500155E-1,-1.195950031E0,1.044300079E1,1.053622867E1
5.691467765E0,-9.240000248E-1,-1.332000017E0,1.067295074E1,1.079536371E1
5.696261062E0,-8.230500221E-1,-1.215000033E0,1.020405006E1,1.030903847E1
5.701055755E0,-9.070500135E-1,-1.215000033E0,1.027305031E1,1.038434049E1
5.705847834E0,-9.289500713E-1,-1.447050095E0,1.060395050E1,1.074247031E1
5.710641284E0,-7.660500407E-1,-1.183950067E0,9.937950134E0,1.003750085E1
5.715434592E0,-1.033950090E0,-1.366050124E0,1.036905003E1,1.050963102E1
5.720229053E0,-9.859500527E-1,-1.360950112E0,1.046505070E1,1.059913057E1
5.725021319E0,-9.450000525E-1,-1.174050093E0,9.913950920E0,1.002785329E1
5.729814548E0,-1.108050108E0,-1.444950104E0,1.056495094E1,1.072072032E1
5.734608009E0,-8.760000467E-1,-1.201050043E0,9.964050293E0,1.007433350E1
5.739402524E0,-1.024049997E0,-1.327950120E0,1.018500042E1,1.032212979E1
5.744194757E0,-1.004999995E0,-1.324950099E0,1.045800018E1,1.058939496E1
5.748988062E0,-9.169500470E-1,-1.126950026E0,9.970950127E0,1.007624236E1
5.753781524E0,-1.113000035E0,-1.315950036E0,1.060800076E1,1.074710071E1
5.758575985E0,-9.570000172E-1,-1.086000085E0,1.012005043E1,1.022304582E1
5.763368295E0,-9.640500546E-1,-1.114950061E0,1.012005043E1,1.022682389E1
5.768161596E0,-1.015050054E0,-1.131000042E0,1.038600063E1,1.049659454E1
5.772955057E0,-9.550500512E-1,-1.030950069E0,1.010805035E1,1.020527611E1
5.777749519E0,-9.720000625E-1,-1.024049997E0,1.026105022E1,1.035773210E1
5.782541825E0,-1.009950042E0,-1.050000072E0,1.035705090E1,1.045901537E1
5.787335130E0,-9.960000515E-1,-1.006950021E0,1.013700008E1,1.023546458E1
5.792128361E0,-9.330000281E-1,-9.589500427E-1,1.011300087E1,1.020112057E1
5.796923048E0,-1.021950006E0,-1.081050038E0,1.038105011E1,1.048709933E1
5.801715127E0,-9.330000281E-1,-9.589500427E-1,9.969000816E0,1.005838215E1
5.806508587E0,-9.760500193E-1,-1.038000107E0,1.022295094E1,1.032176553E1
5.811301909E0,-9.930000305E-1,-1.111950040E0,1.026405048E1,1.037175078E1
5.816096370E0,-8.850000501E-1,-9.400500655E-1,9.832950592E0,9.917350279E0
5.820888680E0,-1.044000030E0,-1.189050078E0,1.041705036E1,1.053654186E1
5.825682149E0,-9.049500227E-1,-1.000050068E0,9.864000320E0,9.955779076E0
5.830475382E0,-9.310500622E-1,-1.078950047E0,9.970950127E0,1.007228047E1
5.835269919E0,-1.039050102E0,-1.134000063E0,1.022505093E1,1.034007968E1
5.840062232E0,-9.430500269E-1,-9.850500226E-1,9.694050789E0,9.789498843E0
5.844855461E0,-1.072050095E0,-1.147950053E0,1.025400066E1,1.037360161E1
5.849648923E0,-1.039050102E0,-1.078950047E0,1.002900028E1,1.014024679E1
5.854443465E0,-9.739500284E-1,-1.042950034E0,9.763050079E0,9.866786219E0
5.859235698E0,-1.084050059E0,-1.186050057E0,1.033500004E1,1.045916369E1
5.864029004E0,-9.739500284E-1,-1.018950105E0,9.733950615E0,9.835478257E0
5.868822484E0,-1.057950020E0,-1.087950110E0,9.940050125E0,1.005522204E1
5.873617023E0,-1.117950082E0,-1.218000054E0,1.031100082E1,1.044270437E1
5.878409256E0,-1.009950042E0,-1.018950105E0,9.604950905E0,9.711505562E0
5.883202465E0,-1.161000013E0,-1.267950058E0,1.030695057E1,1.044934679E1
5.887995773E0,-1.029000044E0,-1.123950005E0,9.933000565E0,1.004920917E1
5.892790465E0,-1.125000000E0,-1.183950067E0,9.778050423E0,9.913507595E0
5.897582544E0,-1.072050095E0,-1.311000109E0,1.023495007E1,1.037411276E1
5.902376004E0,-1.063050032E0,-1.134000063E0,9.595950127E0,9.721023112E0
5.907169303E0,-1.134000063E0,-1.372950077E0,1.018695068E1,1.034141732E1
5.911963995E0,-9.910500646E-1,-1.153050065E0,9.715050697E0,9.833306399E0
5.916756074E0,-1.165950060E0,-1.348950028E0,9.948000908E0,1.010652402E1
5.921549542E0,-9.600000381E-1,-1.240950108E0,9.904050827E0,1.002755105E1
5.926342775E0,-1.090950012E0,-1.267950058E0,9.792000771E0,9.933838552E0
5.931137312E0,-9.859500527E-1,-1.273050070E0,9.931050301E0,1.006074123E1
5.935929544E0,-9.640500546E-1,-1.219950080E0,9.757950783E0,9.881056329E0
5.940722850E0,-1.033950090E0,-1.255950093E0,9.883050919E0,1.001604507E1
5.945516312E0,-9.139500260E-1,-1.159950018E0,9.696000099E0,9.807813549E0
5.950310874E0,-1.101000071E0,-1.255950093E0,1.005000019E1,1.018784156E1
5.955103107E0,-9.190500379E-1,-1.122000098E0,9.579000473E0,9.688177706E0
5.959896413E0,-9.499500394E-1,-1.179000020E0,9.955050468E0,1.006953206E1
5.964689874E0,-9.139500260E-1,-1.123950005E0,9.742050171E0,9.849167975E0
5.969484336E0,-8.040000200E-1,-1.057050109E0,9.502050400E0,9.594411538E0
5.974276645E0,-9.450000525E-1,-1.146000028E0,1.002705002E1,1.013647243E1
5.979069951E0,-8.260500431E-1,-1.009050012E0,9.643050194E0,9.730825126E0
5.983863413E0,-8.779500127E-1,-1.042950034E0,9.739050865E0,9.834004919E0
5.988657874E0,-8.140500188E-1,-9.570000172E-1,9.658050537E0,9.739428456E0
5.993450199E0,-8.140500188E-1,-1.074000001E0,9.961950302E0,1.005269154E1
5.998243428E0,-8.110500574E-1,-9.090000391E-1,9.682050705E0,9.758390703E0
6.003036735E0,-8.260500431E-1,-9.109500647E-1,9.598050117E0,9.676505296E0
6.007831443E0,-7.920000553E-1,-9.330000281E-1,9.829950333E0,9.905840534E0
6.012623522E0,-7.420500517E-1,-8.920500278E-1,9.636000633E0,9.705611765E0
6.017416981E0,-8.160000443E-1,-8.659500480E-1,9.655050278E0,9.728089300E0
6.022210303E0,-7.849500179E-1,-8.490000367E-1,9.691050529E0,9.759785241E0
6.027004764E0,-7.780500650E-1,-8.779500127E-1,9.724950790E0,9.795449250E0
6.031797074E0,-7.590000629E-1,-8.749500513E-1,9.663000107E0,9.732172920E0
6.036590520E0,-6.510000229E-1,-8.110500574E-1,9.475950241E0,9.532850371E0
6.041383752E0,-8.470500112E-1,-1.027950048E0,1.011300087E1,1.020034125E1
6.046178289E0,-7.009500265E-1,-7.339500189E-1,9.471000671E0,9.525222690E0
6.050970512E0,-7.849500179E-1,-8.629500270E-1,9.607950211E0,9.678509003E0
6.055763817E0,-7.300500274E-1,-8.730000257E-1,9.784950256E0,9.850906233E0
6.060557279E0,-5.770500302E-1,-8.200500607E-1,9.430050850E0,9.483212951E0
6.065351812E0,-8.280000687E-1,-9.420000315E-1,9.943050385E0,1.002183612E1
6.070144045E0,-7.870500088E-1,-8.250000477E-1,9.583950043E0,9.651537246E0
6.074937351E0,-7.900500298E-1,-9.180000424E-1,9.667050362E0,9.742626228E0
6.079730807E0,-7.369500399E-1,-9.420000315E-1,9.817950249E0,9.890531154E0
6.084525269E0,-6.130500436E-1,-9.160500169E-1,9.511950493E0,9.575603384E0
6.089317579E0,-7.009500265E-1,-8.370000124E-1,9.574050903E0,9.636096235E0
6.094110879E0,-7.039500475E-1,-8.920500278E-1,9.552000046E0,9.619355685E0
6.098904341E0,-6.510000229E-1,-8.460000157E-1,9.627000809E0,9.686003388E0
6.103698803E0,-7.390500307E-1,-8.419500589E-1,9.574050903E0,9.639373711E0
6.108491113E0,-7.180500627E-1,-8.490000367E-1,9.580950737E0,9.645258627E0
6.113284342E0,-6.559500098E-1,-7.840500474E-1,9.567000389E0,9.621460458E0
6.118077650E0,-6.250500083E-1,-8.029500246E-1,9.507000923E0,9.561301314E0
6.122872341E0,-5.449500084E-1,-7.549500465E-1,9.270000458E0,9.316642559E0
6.127664420E0,-6.559500098E-1,-8.629500270E-1,9.856950760E0,9.916371889E0
6.132457880E0,-6.559500098E-1,-7.819500566E-1,9.643050194E0,9.696913599E0
6.137251202E0,-6.439500451E-1,-7.390500307E-1,9.373050690E0,9.424168178E0
6.142045664E0,-6.010500193E-1,-8.130000234E-1,9.742050171E0,9.794374492E0
6.146837973E0,-4.980000257E-1,-7.429500222E-1,9.469050407E0,9.511198367E0
6.151631409E0,-5.290500522E-1,-7.890000343E-1,9.652950287E0,9.699580623E0
6.156424642E0,-5.310000181E-1,-7.150500417E-1,9.483000755E0,9.524734165E0
6.161219178E0,-4.980000257E-1,-7.579500079E-1,9.556950569E0,9.599885230E0
6.166011430E0,-4.519500136E-1,-7.750500441E-1,9.679050446E0,9.720544168E0
6.170804736E0,-4.330500066E-1,-6.910500526E-1,9.535950661E0,9.570759504E0
6.175598197E0,-4.230000079E-1,-7.390500307E-1,9.682050705E0,9.719425385E0
6.180392731E0,-3.640500307E-1,-6.379500031E-1,9.511950493E0,9.540268068E0
6.185184964E0,-2.850000262E-1,-6.330000162E-1,9.588000298E0,9.613098550E0
6.189978269E0,-2.939999998E-1,-6.120000482E-1,9.591000557E0,9.615002431E0
6.194771741E0,-2.610000074E-1,-5.730000138E-1,9.579000473E0,9.599671874E0
6.199566202E0,-2.680500150E-1,-5.730000138E-1,9.688950539E0,9.709579927E0
6.204358512E0,-2.850000262E-1,-5.659500360E-1,9.663000107E0,9.683754206E0
6.209151823E0,-2.530499995E-1,-5.929500461E-1,9.688950539E0,9.710375204E0
6.213945054E0,-1.890000105E-1,-6.139500141E-1,9.663000107E0,9.684328923E0
6.218739746E0,-1.530000120E-1,-6.330000162E-1,9.639000893E0,9.660974911E0
6.223531815E0,-1.099500060E-1,-5.970000029E-1,9.636000633E0,9.655102600E0
6.228325274E0,-1.290000081E-1,-6.430500150E-1,9.655050278E0,9.677300770E0
6.233118582E0,-1.099500060E-1,-6.310500503E-1,9.720000267E0,9.741084044E0
6.237913279E0,-8.295000345E-2,-6.190500259E-1,9.715050697E0,9.735107277E0
6.242705358E0,-8.595000207E-2,-6.480000019E-1,9.708000183E0,9.729982475E0
6.247498587E0,-5.700000376E-2,-6.640500426E-1,9.696000099E0,9.718880048E0
6.252292034E0,-5.700000376E-2,-6.840000153E-1,9.664950371E0,9.689291547E0
6.257086572E0,-5.505000427E-2,-6.690000296E-1,9.684000015E0,9.707236880E0
6.261878805E0,-4.995000362E-2,-6.910500526E-1,9.709950447E0,9.734638302E0
6.266672102E0,-2.400000021E-2,-7.200000286E-1,9.720000267E0,9.746660004E0
6.271465563E0,-1.905000024E-2,-7.290000319E-1,9.775050163E0,9.802214528E0
6.276260102E0,-1.950000064E-3,-7.510500550E-1,9.784950256E0,9.813731783E0
6.281052334E0,1.095000096E-2,-7.360500097E-1,9.772950172E0,9.800634908E0
6.285845640E0,4.050000105E-3,-7.669500113E-1,9.736950874E0,9.767110169E0
6.290639102E0,6.405000389E-2,-7.699500322E-1,9.757950783E0,9.788489615E0
6.295433558E0,6.900000572E-2,-7.630500197E-1,9.756000519E0,9.786038650E0
6.300225868E0,7.800000161E-2,-7.960500121E-1,9.808950424E0,9.841508423E0
6.305019174E0,6.405000389E-2,-8.299500346E-1,9.861000061E0,9.896072032E0
6.309812408E0,9.495000541E-2,-8.629500270E-1,9.841950417E0,9.880166307E0
6.314607101E0,9.795000404E-2,-8.820000291E-1,9.829950333E0,9.869926129E0
6.319399180E0,1.140000075E-1,-9.060000181E-1,9.823050499E0,9.865401824E0
6.324192630E0,1.330500096E-1,-9.040500522E-1,9.844950676E0,9.887267702E0
6.328985938E0,1.669500023E-1,-8.940000534E-1,9.813000679E0,9.855054070E0
6.333780630E0,1.789500117E-1,-9.109500647E-1,9.823050499E0,9.866821891E0
6.338572699E0,2.220000178E-1,-9.370500445E-1,9.840000153E0,9.887009143E0
6.343366159E0,2.290500104E-1,-9.660000205E-1,9.912000656E0,9.961595101E0
6.348159466E0,2.650500238E-1,-9.490500689E-1,9.859050751E0,9.908169824E0
6.352953928E0,2.719500065E-1,-9.780000448E-1,9.853950500E0,9.906098190E0
6.357746238E0,2.989500165E-1,-9.730500579E-1,9.919050217E0,9.971146109E0
6.362539697E0,3.109500110E-1,-9.780000448E-1,9.841950417E0,9.895310101E0
6.367332916E0,3.540000021E-1,-9.570000172E-1,9.624000549E0,9.677941496E0
6.372127452E0,3.109500110E-1,-1.098000050E0,1.021800041E1,1.028152841E1
6.376919685E0,3.439500034E-1,-1.015950084E0,1.009395027E1,1.015077772E1
6.381712996E0,2.839500010E-1,-9.949500561E-1,9.760950089E0,9.815635479E0
6.386506457E0,4.159500301E-1,-1.110000014E0,1.000995064E1,1.007989217E1
6.391300996E0,5.070000291E-1,-9.400500655E-1,9.768000603E0,9.826218954E0
6.396093209E0,3.799500167E-1,-1.231950045E0,1.039500046E1,1.047464068E1
6.400886514E0,3.780000210E-1,-1.002000093E0,9.864000320E0,9.921965054E0
6.405679976E0,4.590000212E-1,-1.036050081E0,9.844950676E0,9.909951292E0
6.410474433E0,4.930500090E-1,-1.201050043E0,1.035900021E1,1.044004333E1
6.415266742E0,5.430000424E-1,-9.540000558E-1,9.664950371E0,9.727087479E0
6.420059971E0,4.930500090E-1,-1.174050093E0,1.005300045E1,1.013332670E1
6.424853279E0,4.279500246E-1,-1.159950018E0,1.029195023E1,1.036594736E1
6.429647971E0,4.660500288E-1,-1.006950021E0,9.676950455E0,9.740355285E0
6.434440050E0,4.780500233E-1,-1.303950071E0,1.045305061E1,1.054490800E1
6.439233506E0,5.239500403E-1,-1.086000085E0,9.883050919E0,9.956335435E0
6.444026738E0,5.959500074E-1,-1.143000007E0,9.919050217E0,1.000245783E1
6.448821506E0,5.479500294E-1,-1.276950002E0,1.037595081E1,1.046858184E1
6.453613512E0,4.999500215E-1,-1.114950061E0,9.823050499E0,9.898756728E0
6.458406817E0,5.599500537E-1,-1.267950058E0,1.029900074E1,1.039185535E1
6.463200279E0,6.220500469E-1,-1.141050100E0,9.985950470E0,1.007016129E1
6.467994832E0,5.719500184E-1,-1.215000033E0,1.010100079E1,1.018987580E1
6.472787065E0,6.550500393E-1,-1.191000104E0,1.025400066E1,1.034369863E1
6.477580371E0,5.719500184E-1,-1.189050078E0,1.012500095E1,1.021061268E1
6.482373846E0,6.630000472E-1,-1.207950115E0,1.027995014E1,1.037188929E1
6.487168308E0,6.550500393E-1,-1.165050030E0,1.011000061E1,1.019796766E1
6.491960618E0,5.879999995E-1,-1.225050092E0,1.015095043E1,1.024149825E1
6.496753933E0,7.009500265E-1,-1.206000090E0,1.016505051E1,1.026031281E1
6.501547164E0,6.360000372E-1,-1.246050000E0,1.018500042E1,1.028063083E1
6.506341856E0,6.790500283E-1,-1.249050021E0,1.017495060E1,1.027379456E1
6.511133944E0,6.910500526E-1,-1.261050105E0,1.021095085E1,1.031170766E1
6.515927404E0,7.270500064E-1,-1.267950058E0,1.019700050E1,1.030121926E1
6.520720712E0,7.339500189E-1,-1.252950072E0,1.015800095E1,1.026126453E1
6.525515419E0,7.339500189E-1,-1.261050105E0,1.023000050E1,1.033352990E1
6.530307498E0,7.420500517E-1,-1.261050105E0,1.024005032E1,1.034405704E1
6.535100957E0,7.870500088E-1,-1.249050021E0,1.016805077E1,1.027466934E1
6.539894274E0,8.130000234E-1,-1.252950072E0,1.019205093E1,1.030091040E1
6.544688736E0,8.179500103E-1,-1.222050071E0,1.021095085E1,1.031629613E1
6.549481045E0,8.329500556E-1,-1.251000047E0,1.026795006E1,1.037736023E1
6.554274505E0,8.010000587E-1,-1.225050092E0,1.027800083E1,1.038169783E1
6.559067813E0,8.520000577E-1,-1.219950080E0,1.024200058E1,1.034952937E1
6.563862274E0,8.419500589E-1,-1.243950009E0,1.028505039E1,1.039415957E1
6.568654550E0,8.899500370E-1,-1.231950045E0,1.024200058E1,1.035414351E1
6.573447856E0,8.950500488E-1,-1.276950002E0,1.029900074E1,1.041638767E1
6.578241317E0,8.850000501E-1,-1.264950037E0,1.029000092E1,1.040516422E1
6.583035861E0,9.040500522E-1,-1.261050105E0,1.028805065E1,1.040440003E1
6.587828093E0,9.259500504E-1,-1.261050105E0,1.029705048E1,1.041522344E1
6.592621399E0,9.450000525E-1,-1.249050021E0,1.029195023E1,1.041044622E1
6.597414885E0,9.690000415E-1,-1.267950058E0,1.032600021E1,1.044858549E1
6.602209346E0,1.017000079E0,-1.230000019E0,1.031100082E1,1.043378777E1
6.607001656E0,9.709500670E-1,-1.240950108E0,1.029705048E1,1.041690692E1
6.611794885E0,1.006950021E0,-1.231950045E0,1.033095074E1,1.045276004E1
6.616588192E0,1.039050102E0,-1.234050035E0,1.030200005E1,1.042754571E1
6.621382885E0,1.027050018E0,-1.240950108E0,1.027605057E1,1.040153855E1
6.626174983E0,1.054949999E0,-1.270050049E0,1.034295082E1,1.047389986E1
6.630968442E0,1.060050011E0,-1.215000033E0,1.030200005E1,1.042742231E1
6.635761750E0,1.054949999E0,-1.234050035E0,1.027800083E1,1.040543608E1
6.640556460E0,1.078950047E0,-1.230000019E0,1.036395073E1,1.049230709E1
6.645348539E0,1.060050011E0,-1.234050035E0,1.030905056E1,1.043662345E1
6.650141768E0,1.086000085E0,-1.215000033E0,1.035195065E1,1.047943240E1
6.654935230E0,1.101000071E0,-1.227000117E0,1.034505081E1,1.047558145E1
6.659729768E0,1.129950047E0,-1.219950080E0,1.033995056E1,1.047280492E1
6.664522001E0,1.089000106E0,-1.251000047E0,1.035195065E1,1.048397847E1
6.669315321E0,1.072050095E0,-1.237050056E0,1.035000038E1,1.047864935E1
6.674108783E0,1.122000098E0,-1.207950115E0,1.035000038E1,1.048048356E1
6.678903245E0,1.122000098E0,-1.287000060E0,1.039995003E1,1.053917520E1
6.683695554E0,1.113000035E0,-1.285050035E0,1.034505081E1,1.048380651E1
6.688488860E0,1.090950012E0,-1.288950086E0,1.036695004E1,1.050358116E1
6.693282322E0,1.122000098E0,-1.300950050E0,1.040700054E1,1.054784412E1
6.698076764E0,1.089000106E0,-1.324950099E0,1.036695004E1,1.050785739E1
6.702869074E0,1.102950096E0,-1.335000038E0,1.039005089E1,1.053336990E1
6.707662303E0,1.090950012E0,-1.354050040E0,1.039305019E1,1.053750994E1
6.712455586E0,1.089000106E0,-1.336950064E0,1.037100029E1,1.051337261E1
6.717250279E0,1.089000106E0,-1.348950028E0,1.040700054E1,1.055041457E1
6.722042358E0,1.074000001E0,-1.387950063E0,1.038795090E1,1.053515093E1
6.726835817E0,1.050000072E0,-1.354050040E0,1.033800030E1,1.047903630E1
6.731629125E0,1.062000036E0,-1.392000079E0,1.036905003E1,1.051583124E1
6.736423817E0,1.041000009E0,-1.404000044E0,1.045305061E1,1.059816797E1
6.741215901E0,1.024049997E0,-1.383000016E0,1.031400013E1,1.045657526E1
6.746009361E0,1.045950055E0,-1.380000114E0,1.030200005E1,1.044651218E1
6.750802668E0,1.072050095E0,-1.395000100E0,1.043100071E1,1.057833127E1
6.755597111E0,1.021950006E0,-1.399950027E0,1.036200047E1,1.050596476E1
6.760389344E0,9.859500527E-1,-1.387950063E0,1.034505081E1,1.048420618E1
6.765182649E0,1.004999995E0,-1.384950042E0,1.033305073E1,1.047377912E1
6.769976106E0,1.003050089E0,-1.414050102E0,1.039995003E1,1.054346280E1
6.774770644E0,1.003050089E0,-1.360950112E0,1.025400066E1,1.039244073E1
6.779562877E0,1.012050033E0,-1.383000016E0,1.026405048E1,1.040613601E1
6.784356116E0,9.910500646E-1,-1.383000016E0,1.039005089E1,1.052843895E1
6.789149424E0,9.570000172E-1,-1.384950042E0,1.032105064E1,1.045743860E1
6.793944116E0,9.829500318E-1,-1.348950028E0,1.024905014E1,1.038406884E1
6.798736185E0,1.000050068E0,-1.366050124E0,1.027305031E1,1.041161638E1
6.803529644E0,1.018950105E0,-1.408950090E0,1.041705036E1,1.056117124E1
6.808322952E0,9.600000381E-1,-1.332000017E0,1.023000050E1,1.036092343E1
6.813117625E0,9.790500402E-1,-1.332000017E0,1.015605068E1,1.028970983E1
6.817909704E0,1.018950105E0,-1.371000051E0,1.024695015E1,1.038835347E1
6.822703164E0,1.004999995E0,-1.366050124E0,1.030905056E1,1.044761415E1
6.827496457E0,9.330000281E-1,-1.323000073E0,1.022295094E1,1.035034029E1
6.832290918E0,9.520500302E-1,-1.312950015E0,1.011795044E1,1.024710486E1
6.837083228E0,1.024049997E0,-1.351950049E0,1.025895023E1,1.039819731E1
6.841876472E0,9.930000305E-1,-1.378050089E0,1.033800030E1,1.047660829E1
6.846669933E0,9.040500522E-1,-1.288950086E0,1.006200027E1,1.018442676E1
6.851464472E0,9.880500436E-1,-1.336950064E0,1.006200027E1,1.019840811E1
6.856256704E0,1.006950021E0,-1.402050018E0,1.036695004E1,1.050967866E1
6.861050010E0,8.880000710E-1,-1.332000017E0,1.012500095E1,1.025077619E1
6.865843448E0,9.040500522E-1,-1.287000060E0,9.967050552E0,1.009038019E1
6.870637986E0,9.430500269E-1,-1.426050067E0,1.031895065E1,1.045962259E1
6.875430219E0,9.210000634E-1,-1.342050076E0,1.011795044E1,1.024803692E1
6.880223534E0,8.280000687E-1,-1.311000109E0,9.913950920E0,1.003447698E1
6.885016995E0,8.569500446E-1,-1.407000065E0,1.023495007E1,1.036668777E1
6.889811457E0,8.899500370E-1,-1.348950028E0,1.002195072E1,1.015141239E1
6.894603742E0,8.280000687E-1,-1.366050124E0,9.948000908E0,1.007543543E1
6.899397048E0,8.130000234E-1,-1.408950090E0,1.021605015E1,1.034474698E1
6.904190510E0,7.870500088E-1,-1.332000017E0,9.904050827E0,1.002416553E1
6.908984951E0,7.990500331E-1,-1.395000100E0,9.991050720E0,1.011956524E1
6.913777030E0,8.130000234E-1,-1.408950090E0,1.011300087E1,1.024299253E1
6.918570490E0,7.540500164E-1,-1.318050027E0,9.817950249E0,9.934686426E0
6.923363806E0,7.920000553E-1,-1.431000113E0,1.002900028E1,1.016148966E1
6.928158499E0,8.059500456E-1,-1.390050054E0,1.003605080E1,1.016386296E1
6.932950578E0,7.540500164E-1,-1.320000052E0,9.757950783E0,9.875656689E0
6.937743817E0,7.609500289E-1,-1.420950055E0,1.004100037E1,1.016955419E1
6.942537278E0,7.729500532E-1,-1.348950028E0,9.924000740E0,1.004504398E1
6.947331817E0,7.200000286E-1,-1.359000087E0,9.840000153E0,9.959462048E0
6.952124049E0,7.320000529E-1,-1.407000065E0,9.900000572E0,1.002623980E1
6.956917355E0,7.200000286E-1,-1.327950120E0,9.901950836E0,1.001651047E1
6.961710817E0,7.129500508E-1,-1.363950014E0,9.877950668E0,9.997127929E0
6.966505312E0,7.390500307E-1,-1.288950086E0,9.679050446E0,9.792425889E0
6.971297622E0,6.990000606E-1,-1.348950028E0,1.006005001E1,1.017412765E1
6.976090928E0,6.840000153E-1,-1.309050083E0,9.799050331E0,9.909735392E0
6.980884393E0,6.529500484E-1,-1.287000060E0,9.769950867E0,9.875963389E0
6.985678855E0,7.249500155E-1,-1.231950045E0,9.691050529E0,9.795902909E0
6.990470934E0,6.910500526E-1,-1.395000100E0,1.011795044E1,1.023701600E1
6.995264384E0,6.079500318E-1,-1.225050092E0,9.748950005E0,9.844408421E0
7.000057692E0,5.119500160E-1,-1.291950107E0,9.768000603E0,9.866360204E0
7.004852384E0,6.430500150E-1,-1.320000052E0,9.871050835E0,9.979657211E0
7.009644458E0,6.360000372E-1,-1.279950023E0,9.672000885E0,9.777032741E0
7.014437918E0,5.910000205E-1,-1.285050035E0,9.757950783E0,9.859930938E0
7.019231225E0,4.849500358E-1,-1.390050054E0,9.969000816E0,1.007712226E1
7.024025913E0,4.639500082E-1,-1.207950115E0,9.607950211E0,9.694694443E0
7.028817992E0,4.350000322E-1,-1.399950027E0,9.829950333E0,9.938662317E0
7.033611451E0,4.879500270E-1,-1.351950049E0,9.754050255E0,9.859379318E0
7.038404778E0,4.639500082E-1,-1.351950049E0,9.610050201E0,9.715764685E0
7.043199239E0,4.180500209E-1,-1.390050054E0,9.709950447E0,9.817848168E0
7.047991472E0,3.540000021E-1,-1.395000100E0,9.727050781E0,9.832947584E0
7.052784793E0,3.370500207E-1,-1.431000113E0,9.742050171E0,9.852355331E0
7.057578254E0,3.439500034E-1,-1.459050059E0,9.751049995E0,9.865602095E0
7.062372793E0,2.959500253E-1,-1.443000078E0,9.615000725E0,9.727182253E0
7.067165021E0,3.060000241E-1,-1.455000043E0,9.688950539E0,9.802368269E0
7.071958249E0,2.509500086E-1,-1.492950082E0,9.651000023E0,9.769016189E0
7.076751557E0,3.060000241E-1,-1.356000066E0,9.355950356E0,9.458656313E0
7.081546249E0,1.669500023E-1,-1.704000115E0,1.014105034E1,1.028457051E1
7.086338328E0,1.690500081E-1,-1.404000044E0,9.567000389E0,9.670950857E0
7.091131788E0,8.100000024E-2,-1.450050116E0,9.322950363E0,9.435391344E0
7.095925096E0,1.720500141E-1,-1.651050091E0,9.871050835E0,1.000965595E1
7.100719788E0,2.290500104E-1,-1.414050102E0,9.355950356E0,9.464978006E0
7.105511867E0,1.240500063E-1,-1.576950073E0,9.564000130E0,9.693928946E0
7.110305307E0,1.020000055E-1,-1.519050121E0,9.721950531E0,9.840438984E0
7.115098615E0,-7.050000131E-3,-1.459050059E0,9.322950363E0,9.436433662E0
7.119893077E0,1.690500081E-1,-1.546050072E0,9.523950577E0,9.650102762E0
7.124685414E0,6.599999964E-2,-1.716000080E0,1.005300045E1,1.019861904E1
7.129478874E0,4.695000127E-2,-1.231950045E0,8.916000366E0,9.000831503E0
7.134272107E0,-1.200000010E-2,-1.636950135E0,9.643050194E0,9.781010520E0
7.139066668E0,9.495000541E-2,-1.522050023E0,9.778050423E0,9.896257972E0
7.143858901E0,4.695000127E-2,-1.450050116E0,9.223950386E0,9.337350286E0
7.148652207E0,-1.200000010E-2,-1.564950109E0,9.816000938E0,9.939974208E0
7.153445668E0,-8.100000024E-2,-1.471050024E0,9.460950851E0,9.574974683E0
7.158240207E0,2.295000106E-2,-1.467000127E0,9.411000252E0,9.524680667E0
7.163032440E0,1.069500074E-1,-1.476000071E0,9.303000450E0,9.419969845E0
7.167825735E0,-1.905000024E-2,-1.558050036E0,9.684000015E0,9.808554385E0
7.172619197E0,-7.395000011E-2,-1.443000078E0,9.652950287E0,9.760490104E0
7.177413658E0,-1.770000011E-1,-1.344000101E0,9.081000328E0,9.181624705E0
7.182205968E0,-8.595000207E-2,-1.639050126E0,9.900000572E0,1.003513249E1
7.186999197E0,1.905000024E-2,-1.380000114E0,9.390000343E0,9.490883503E0
7.191792504E0,-1.189500093E-1,-1.480950117E0,9.394050598E0,9.510812215E0
7.196587173E0,-1.030500084E-1,-1.474050045E0,9.682050705E0,9.794158907E0
7.201379252E0,-1.260000020E-1,-1.387950063E0,9.154950142E0,9.260420805E0
7.206172711E0,-5.205000192E-2,-1.524000049E0,9.603000641E0,9.723317678E0
7.210966029E0,-1.099500060E-1,-1.339950085E0,9.306000710E0,9.402616893E0
7.215760491E0,-2.560500205E-1,-1.467000127E0,9.291000366E0,9.409587599E0
7.220552800E0,-1.650000066E-1,-1.423050046E0,9.591000557E0,9.697401101E0
7.225346029E0,-2.029500157E-1,-1.420950055E0,9.349050522E0,9.458595743E0
7.230139491E0,-2.410500050E-1,-1.501950026E0,9.588000298E0,9.707919895E0
7.234934029E0,-2.530499995E-1,-1.411050081E0,9.399000168E0,9.507696924E0
7.239726252E0,-2.650500238E-1,-1.455000043E0,9.385050774E0,9.500865995E0
7.244519558E0,-2.560500205E-1,-1.440000057E0,9.409049988E0,9.522047230E0
7.249313019E0,-3.540000021E-1,-1.479000092E0,9.351000786E0,9.473857344E0
7.254107462E0,-3.469500244E-1,-1.476000071E0,9.484950066E0,9.605374968E0
7.258899771E0,-4.140000343E-1,-1.479000092E0,9.411000252E0,9.535500146E0
7.263693077E0,-4.110000134E-1,-1.474050045E0,9.450000763E0,9.573100802E0
7.268486323E0,-4.069500268E-1,-1.468950033E0,9.421050072E0,9.543563641E0
7.273281015E0,-4.500000179E-1,-1.495050073E0,9.433050156E0,9.561386404E0
7.278073094E0,-4.399500191E-1,-1.492950082E0,9.373050690E0,9.501396487E0
7.282866549E0,-4.470000267E-1,-1.504950047E0,9.339000702E0,9.470037897E0
7.287659856E0,-4.309500158E-1,-1.483050108E0,9.387000084E0,9.513197471E0
7.292454549E0,-4.780500233E-1,-1.513950109E0,9.415950775E0,9.548858872E0
7.297246642E0,-5.340000391E-1,-1.504950047E0,9.337050438E0,9.472620628E0
7.302040101E0,-5.310000181E-1,-1.546050072E0,9.382050514E0,9.523397697E0
7.306833409E0,-5.430000424E-1,-1.543050051E0,9.378000259E0,9.519597753E0
7.311627865E0,-5.530500412E-1,-1.512000084E0,9.283950806E0,9.422512996E0
7.316420175E0,-5.430000424E-1,-1.561950088E0,9.363000870E0,9.507908414E0
7.321213404E0,-5.340000391E-1,-1.561950088E0,9.373050690E0,9.517296010E0
7.326006865E0,-5.839500427E-1,-1.531050086E0,9.409049988E0,9.550671897E0
7.330801404E0,-6.150000095E-1,-1.524000049E0,9.415950775E0,9.558291174E0
7.335593637E0,-6.289500594E-1,-1.500000119E0,9.366000175E0,9.506184188E0
7.340386961E0,-6.130500436E-1,-1.504950047E0,9.430050850E0,9.569041960E0
7.345180423E0,-6.250500083E-1,-1.462050080E0,9.367950439E0,9.501935244E0
7.349974961E0,-6.390000582E-1,-1.498050094E0,9.430050850E0,9.569656953E0
7.354767166E0,-6.360000372E-1,-1.474050045E0,9.451950073E0,9.587318696E0
7.359560395E0,-6.769500375E-1,-1.479000092E0,9.433050156E0,9.572258765E0
7.364353933E0,-6.870000362E-1,-1.467000127E0,9.433050156E0,9.571128129E0
7.369148384E0,-6.919500232E-1,-1.471050024E0,9.409049988E0,9.548455618E0
7.373940463E0,-6.889500618E-1,-1.467000127E0,9.433050156E0,9.571268296E0
7.378733922E0,-6.960000396E-1,-1.455000043E0,9.415950775E0,9.553092179E0
7.383527212E0,-6.919500232E-1,-1.447050095E0,9.451950073E0,9.587080317E0
7.388321904E0,-7.110000253E-1,-1.474050045E0,9.499950409E0,9.639886013E0
7.393113983E0,-7.300500274E-1,-1.467000127E0,9.487950325E0,9.628409203E0
7.397907466E0,-7.200000286E-1,-1.471050024E0,9.526050568E0,9.665817484E0
7.402700774E0,-7.369500399E-1,-1.462050080E0,9.414000511E0,9.555317442E0
7.407495235E0,-6.030000448E-1,-1.375950098E0,9.301050186E0,9.421591282E0
7.412287545E0,-8.500500321E-1,-1.741950035E0,1.010805035E1,1.029221341E1
7.417081004E0,-7.990500331E-1,-1.320000052E0,9.232050896E0,9.360109232E0
7.421874237E0,-8.760000467E-1,-1.584000111E0,9.493050575E0,9.664079969E0
7.426668751E0,-7.180500627E-1,-1.462050080E0,9.598050117E0,9.735283888E0
7.431460984E0,-7.800000310E-1,-1.636950135E0,9.718050003E0,9.885772689E0
7.436254289E0,-7.750500441E-1,-1.384950042E0,9.397050858E0,9.530128751E0
7.441047741E0,-9.139500260E-1,-1.540950060E0,9.615000725E0,9.780494398E0
7.445842279E0,-6.870000362E-1,-1.435050011E0,9.526050568E0,9.658000673E0
7.450634512E0,-8.899500370E-1,-1.624950051E0,1.003095055E1,1.020060991E1
7.455427842E0,-8.970000148E-1,-1.435050011E0,9.567000389E0,9.715527469E0
7.460221303E0,-8.760000467E-1,-1.492950082E0,9.460950851E0,9.617997039E0
7.465015765E0,-8.020500541E-1,-1.546050072E0,9.957000732E0,1.010818573E1
7.469807834E0,-6.720000505E-1,-1.392000079E0,9.301050186E0,9.428615108E0
7.474601293E0,-9.120000601E-1,-1.620000124E0,1.000500011E1,1.017625529E1
7.479394601E0,-8.950500488E-1,-1.452000022E0,9.631050110E0,9.780927608E0
7.484189312E0,-9.019500613E-1,-1.500000119E0,9.648000717E0,9.805479698E0
7.488981391E0,-9.360000491E-1,-1.519050121E0,1.001700020E1,1.017466964E1
7.493774851E0,-7.680000067E-1,-1.525950074E0,9.484950066E0,9.637563249E0
7.498568154E0,-8.089500666E-1,-1.504950047E0,1.004100037E1,1.018533079E1
7.503362615E0,-9.379500151E-1,-1.507050037E0,9.781949997E0,9.941704873E0
7.508154848E0,-9.019500613E-1,-1.471050024E0,9.841950417E0,9.992071361E0
7.512948145E0,-9.330000281E-1,-1.489950061E0,9.912000656E0,1.006668750E1
7.517741606E0,-7.630500197E-1,-1.444950104E0,9.736950874E0,9.873111894E0
7.522536145E0,-7.540500164E-1,-1.384950042E0,9.792000771E0,9.918162992E0
7.527328367E0,-9.480000734E-1,-1.468950033E0,1.005795002E1,1.020876471E1
7.532121673E0,-8.400000334E-1,-1.387950063E0,1.001700020E1,1.014752671E1
7.536915135E0,-9.120000601E-1,-1.387950063E0,9.823050499E0,9.962453041E0
7.541709591E0,-8.740500212E-1,-1.378050089E0,1.020405006E1,1.033371294E1
7.546501901E0,-7.729500532E-1,-1.320000052E0,9.718050003E0,9.837700330E0
7.551295207E0,-8.880000710E-1,-1.354050040E0,1.029195023E1,1.041855245E1
7.556088668E0,-8.280000687E-1,-1.249050021E0,9.889950752E0,1.000284139E1
7.560883130E0,-8.470500112E-1,-1.285050035E0,9.991050720E0,1.010890409E1
7.565675209E0,-8.329500556E-1,-1.267950058E0,1.007700062E1,1.019055664E1
7.570468668E0,-8.260500431E-1,-1.285050035E0,1.016100025E1,1.027519530E1
7.575261976E0,-8.779500127E-1,-1.243950009E0,1.018005085E1,1.029328146E1
7.580056668E0,-8.620500565E-1,-1.182000041E0,9.792000771E0,9.900683486E0
7.584848767E0,-7.710000277E-1,-1.191000104E0,1.009395027E1,1.019317195E1
7.589642227E0,-9.529500604E-1,-1.347000122E0,1.040700054E1,1.053699119E1
7.594435534E0,-8.040000200E-1,-1.087950110E0,1.000995064E1,1.010094863E1
7.599230000E0,-8.449500203E-1,-1.155000091E0,9.796950340E0,9.900919236E0
7.604022310E0,-8.779500127E-1,-1.189050078E0,1.057500076E1,1.067779366E1
7.608815538E0,-8.110500574E-1,-1.126950026E0,1.014105034E1,1.023565926E1
7.613609000E0,-8.350500464E-1,-1.066950083E0,9.853950500E0,9.946659315E0
7.618403538E0,-8.620500565E-1,-1.134000063E0,1.042200089E1,1.051889675E1
7.623195771E0,-8.689500690E-1,-1.066950083E0,1.020405006E1,1.029641173E1
7.627989073E0,-8.089500666E-1,-1.026000023E0,9.897000313E0,9.982869900E0
7.632782534E0,-9.430500269E-1,-1.171950102E0,1.054095078E1,1.064774406E1
7.637576996E0,-8.299500346E-1,-1.038000107E0,1.018905067E1,1.027535960E1
7.642369310E0,-8.040000200E-1,-1.038000107E0,9.921000481E0,1.000750273E1
7.647162539E0,-1.045950055E0,-1.251000047E0,1.068705082E1,1.081073854E1
7.651956077E0,-7.750500441E-1,-9.880500436E-1,9.864000320E0,9.943613417E0
7.656750549E0,-8.449500203E-1,-1.126950026E0,1.028505039E1,1.038105093E1
7.661542627E0,-9.670500755E-1,-1.146000028E0,1.041900063E1,1.052635150E1
7.666336087E0,-7.870500088E-1,-1.045050025E0,9.964050293E0,1.004957091E1
7.671129395E0,-1.004999995E0,-1.210050106E0,1.052505016E1,1.064194189E1
7.675923856E0,-7.249500155E-1,-1.015950084E0,9.837000847E0,9.915860667E0
7.680716147E0,-9.840000272E-1,-1.335000038E0,1.068705082E1,1.081496816E1
7.685509607E0,-8.419500589E-1,-1.071000099E0,1.003905010E1,1.013106352E1
7.690302914E0,-8.299500346E-1,-1.264950037E0,1.027095032E1,1.038177904E1
7.695097376E0,-9.480000734E-1,-1.225050092E0,1.039995003E1,1.051467605E1
7.699889609E0,-7.540500164E-1,-1.122000098E0,9.997950554E0,1.008892913E1
7.704682914E0,-9.760500193E-1,-1.387950063E0,1.068705082E1,1.082091189E1
7.709476361E0,-7.560000420E-1,-1.095000029E0,9.801000595E0,9.890913698E0
7.714270899E0,-9.049500227E-1,-1.419000030E0,1.067805004E1,1.080986810E1
7.719063132E0,-7.939500213E-1,-1.122000098E0,9.991050720E0,1.008515421E1
7.723856433E0,-8.830500245E-1,-1.396950126E0,1.045305061E1,1.058288780E1
7.728649894E0,-8.299500346E-1,-1.194000006E0,1.025595093E1,1.035852222E1
7.733444433E0,-8.020500541E-1,-1.261050105E0,1.021800041E1,1.032671604E1
7.738236440E0,-8.380500674E-1,-1.320000052E0,1.047405052E1,1.059011154E1
7.743029899E0,-7.440000176E-1,-1.191000104E0,1.015095043E1,1.024762470E1
7.747823207E0,-7.830000520E-1,-1.299000025E0,1.040205002E1,1.051204712E1
7.752617899E0,-7.440000176E-1,-1.215000033E0,1.025595093E1,1.035443338E1
7.757409978E0,-6.799500585E-1,-1.263000011E0,1.036395073E1,1.046274227E1
7.762203438E0,-7.150500417E-1,-1.246050000E0,1.033095074E1,1.043036338E1
7.766996746E0,-6.049500108E-1,-1.179000020E0,1.033995056E1,1.042451837E1
7.771791207E0,-7.180500627E-1,-1.273050070E0,1.042200089E1,1.052398949E1
7.776583517E0,-5.839500427E-1,-1.131000042E0,1.029495049E1,1.037333911E1
7.781376736E0,-6.889500618E-1,-1.309050083E0,1.040505028E1,1.050967819E1
7.786170274E0,-5.190000534E-1,-1.087950110E0,1.029705048E1,1.036736442E1
7.790964736E0,-6.169500351E-1,-1.275000095E0,1.046505070E1,1.056047057E1
7.795756959E0,-4.759500325E-1,-1.086000085E0,1.028505039E1,1.035317276E1
7.800550265E0,-5.430000424E-1,-1.239000082E0,1.043400097E1,1.052132817E1
7.805343727E0,-4.549500346E-1,-1.117050052E0,1.034505081E1,1.041512634E1
7.810138279E0,-4.500000179E-1,-1.186050057E0,1.037100029E1,1.044829468E1
7.814930512E0,-4.549500346E-1,-1.203000069E0,1.046205044E1,1.054081060E1
7.819723818E0,-3.520500064E-1,-1.110000014E0,1.024200058E1,1.030798793E1
7.824517268E0,-4.810500145E-1,-1.276950002E0,1.058895016E1,1.067651047E1
7.829311730E0,-2.890500128E-1,-1.095000029E0,1.013895035E1,1.020200417E1
7.834104039E0,-4.660500288E-1,-1.330050111E0,1.063905048E1,1.073199101E1
7.838897355E0,-2.730000019E-1,-1.105050087E0,1.011000061E1,1.017387719E1
7.843690817E0,-3.660000265E-1,-1.276950002E0,1.054395008E1,1.062729696E1
7.848485278E0,-2.820000052E-1,-1.170000076E0,1.025595093E1,1.032632333E1
7.853277347E0,-3.079500198E-1,-1.206000090E0,1.033305073E1,1.040774744E1
7.858070807E0,-3.750000298E-1,-1.276950002E0,1.048095036E1,1.056510988E1
7.862864114E0,-2.370000184E-1,-1.179000020E0,1.017495060E1,1.024577131E1
7.867658802E0,-3.439500034E-1,-1.288950086E0,1.055100060E1,1.063500388E1
7.872450804E0,-2.320500165E-1,-1.225050092E0,1.018500042E1,1.026103447E1
7.877244109E0,-2.939999998E-1,-1.285050035E0,1.043805027E1,1.052096398E1
7.882037586E0,-2.629500031E-1,-1.291950107E0,1.033095074E1,1.041474056E1
7.886832124E0,-2.410500050E-1,-1.237050056E0,1.025895023E1,1.033607555E1
7.891624357E0,-2.629500031E-1,-1.279950023E0,1.043400097E1,1.051550241E1
7.896417677E0,-1.960500032E-1,-1.227000117E0,1.021095085E1,1.028627640E1
7.901211138E0,-2.370000184E-1,-1.255950093E0,1.041000080E1,1.048816935E1
7.906005600E0,-1.890000105E-1,-1.227000117E0,1.029195023E1,1.036655631E1
7.910797896E0,-2.029500157E-1,-1.261050105E0,1.034295082E1,1.042151946E1
7.915591201E0,-2.010000050E-1,-1.243950009E0,1.034505081E1,1.042151088E1
7.920384663E0,-1.909500062E-1,-1.225050092E0,1.021605015E1,1.029101017E1
7.925179149E0,-1.360500008E-1,-1.243950009E0,1.038600063E1,1.046111516E1
7.929971458E0,-1.500000060E-1,-1.237050056E0,1.030395031E1,1.037902620E1
7.934764687E0,-1.380000114E-1,-1.213050008E0,1.029900074E1,1.037111135E1
7.939558226E0,-1.099500060E-1,-1.195950031E0,1.033500004E1,1.040454762E1
