"Time (s)","Acceleration x (m/s^2)","Acceleration y (m/s^2)","Acceleration z (m/s^2)","Absolute acceleration (m/s^2)"
4.466875005E-3,8.876541138E0,-3.126997375E-1,2.944077759E0,9.357262289E0
1.451487500E-2,8.771309967E0,-3.034190369E-1,2.884351959E0,9.238367165E0
2.456287501E-2,8.864266663E0,-1.616638184E-1,2.844684448E0,9.310939172E0
3.460987500E-2,9.087751923E0,-2.844085693E-3,2.844085693E0,9.522398150E0
4.465787501E-2,9.348509674E0,1.727407837E-1,2.886148224E0,9.785413843E0
5.470587500E-2,9.463620300E0,2.683918762E-1,3.014880524E0,9.935876809E0
6.475287501E-2,9.399703217E0,2.661465454E-1,3.151845703E0,9.917630054E0
7.480087500E-2,9.263336792E0,1.715432739E-1,3.207080841E0,9.804295137E0
8.484887501E-2,9.151968384E0,1.945953369E-2,3.244353333E0,9.710032570E0
9.489587500E-2,9.183552704E0,-1.710942078E-1,3.104693756E0,9.695671035E0
1.049438750E-1,9.313033447E0,-2.435435486E-1,2.884950714E0,9.752684045E0
1.149918750E-1,9.359137573E0,-1.847158813E-1,2.677931213E0,9.736472239E0
1.250388750E-1,9.368118896E0,-6.960525513E-2,2.576142883E0,9.716121073E0
1.350868750E-1,9.723928986E0,-1.282832336E-1,2.509082336E0,1.004324378E1
1.451348750E-1,9.888885956E0,-1.257385254E-1,2.549348602E0,1.021298457E1
1.551818750E-1,9.942474518E0,-1.466949463E-1,2.612816620E0,1.028110547E1
1.652298750E-1,9.850565643E0,-1.760339355E-1,2.628533936E0,1.019675547E1
1.752778750E-1,9.672885132E0,-1.959425354E-1,2.641556854E0,1.002900408E1
1.853248750E-1,9.493558044E0,-1.895059204E-1,2.695295105E0,9.870571034E0
1.953728750E-1,9.387728119E0,-1.553768921E-1,2.770139465E0,9.789139588E0
2.054205417E-1,9.360784149E0,-1.519340515E-1,2.781964874E0,9.766611101E0
2.154685417E-1,9.371711426E0,-1.269360352E-1,2.730621643E0,9.762242691E0
2.255155417E-1,9.418863373E0,-1.188528442E-1,2.673889618E0,9.791772001E0
2.355635417E-1,9.504934387E0,-1.164578247E-1,2.599494324E0,9.854679643E0
2.456115417E-1,9.580527191E0,-8.202941895E-2,2.551144867E0,9.914714833E0
2.556585417E-1,9.545949097E0,-1.058299255E-1,2.554138641E0,9.882305820E0
2.657065417E-1,9.403295746E0,-1.794767761E-1,2.568359070E0,9.749392346E0
2.757545417E-1,9.227860565E0,-2.297721863E-1,2.566562805E0,9.580889860E0
2.858015417E-1,9.192384338E0,-3.095562744E-1,2.621348877E0,9.563849897E0
2.958495417E-1,9.224268036E0,-4.014651489E-1,2.687810669E0,9.616268572E0
3.058975417E-1,9.242530060E0,-4.297563171E-1,2.760409698E0,9.655512110E0
3.159445417E-1,9.258995819E0,-4.219725037E-1,2.815046082E0,9.686668613E0
3.259925417E-1,9.330696716E0,-3.679348755E-1,2.810106354E0,9.751613969E0
3.360405417E-1,9.484277344E0,-2.971321106E-1,2.841091919E0,9.905130363E0
3.460875417E-1,9.618548126E0,-2.430944824E-1,2.836002502E0,1.003087599E1
3.561355417E-1,9.676028595E0,-2.653981018E-1,2.806214447E0,1.007823422E1
3.661835417E-1,9.563612366E0,-2.926414490E-1,2.780917053E0,9.964026302E0
3.762305417E-1,9.371112671E0,-2.511776733E-1,2.750380554E0,9.769618012E0
3.862785417E-1,9.255552979E0,-2.151026917E-1,2.875969391E0,9.694469044E0
3.963265417E-1,9.258247375E0,-2.076182556E-1,2.983894958E0,9.729433639E0
4.063735417E-1,9.361382904E0,-1.282832336E-1,2.993924103E0,9.829319814E0
4.164215417E-1,9.380093994E0,-3.936813354E-2,2.963986359E0,9.837323230E0
4.264695417E-1,9.438622284E0,1.661544800E-2,2.907703400E0,9.876366020E0
4.365165417E-1,9.545050964E0,-3.847000122E-2,2.854563904E0,9.962831572E0
4.465645417E-1,9.604178009E0,-1.001417542E-1,2.834655304E0,1.001426654E1
4.566125417E-1,9.645192719E0,-1.154100037E-1,2.763553162E0,1.003395675E1
4.666595417E-1,9.610315247E0,-8.187973022E-2,2.631228333E0,9.964347744E0
4.767075417E-1,9.589059448E0,-4.191284180E-2,2.481240234E0,9.904966981E0
4.867555417E-1,9.612560577E0,-6.541397095E-2,2.353705444E0,9.896743361E0
4.968025417E-1,9.614057465E0,-1.216969299E-1,2.307301941E0,9.887798204E0
5.068505417E-1,9.588909760E0,-1.875599670E-1,2.330653381E0,9.869869011E0
5.168985417E-1,9.598190460E0,-1.910028076E-1,2.295925598E0,9.870816407E0
5.269455417E-1,9.624984741E0,-1.332229614E-1,2.259850616E0,9.887618744E0
5.369935417E-1,9.559720459E0,-4.296066284E-2,2.334694977E0,9.840777485E0
5.470415417E-1,9.583670654E0,-3.367996216E-2,2.414179688E0,9.883124056E0
5.570885417E-1,9.607321472E0,-3.412902832E-2,2.388283539E0,9.899782266E0
5.671365417E-1,9.561516724E0,-5.179229736E-2,2.339934082E0,9.843809019E0
5.771845417E-1,9.453591156E0,-8.277786255E-2,2.291734314E0,9.727758431E0
5.872315417E-1,9.308093719E0,-9.265731812E-2,2.294877777E0,9.587265412E0
5.972795417E-1,9.252409515E0,-1.279838562E-1,2.266137543E0,9.526743466E0
6.073265417E-1,9.308991852E0,-1.034349060E-1,2.144889679E0,9.553459050E0
6.173745417E-1,9.428892517E0,1.137634277E-2,2.062710571E0,9.651886780E0
6.274225417E-1,9.563762054E0,1.342707825E-1,2.112257538E0,9.795162336E0
6.374695417E-1,9.689799957E0,1.722917175E-1,2.099533997E0,9.916145958E0
6.475175417E-1,9.757608948E0,1.725910950E-1,2.081122284E0,9.978566532E0
6.575655417E-1,9.789492645E0,1.579216003E-1,2.209405518E0,1.003696061E1
6.676125417E-1,9.686357117E0,1.445993042E-1,2.325114899E0,9.962559031E0
6.776605417E-1,9.547146606E0,1.202000427E-1,2.404150543E0,9.845932978E0
6.877085417E-1,9.429640961E0,1.016386414E-1,2.369871826E0,9.723412546E0
6.977555417E-1,9.419911194E0,8.277786255E-2,2.261048126E0,9.687823166E0
7.078035417E-1,9.480385437E0,1.008901978E-1,2.106868744E0,9.712197628E0
7.178515417E-1,9.543254700E0,1.032852173E-1,2.060614929E0,9.763734531E0
7.278985417E-1,9.539362793E0,1.053808594E-1,2.095193024E0,9.767311883E0
7.379465417E-1,9.469009094E0,1.754351807E-1,2.225272522E0,9.728553260E0
7.479945417E-1,9.433682556E0,2.484832764E-1,2.410587158E0,9.739971302E0
7.580415417E-1,9.473350067E0,2.713856506E-1,2.562670898E0,9.817601224E0
7.680895417E-1,9.543853455E0,2.706372070E-1,2.687810669E0,9.918805848E0
7.781365417E-1,9.628577271E0,2.656974792E-1,2.758463745E0,1.001944198E1
7.881845417E-1,9.631571045E0,2.541714478E-1,2.727029114E0,1.001341359E1
7.982325417E-1,9.564809875E0,2.598596191E-1,2.581381989E0,9.910431269E0
8.082795417E-1,9.502239990E0,2.329156494E-1,2.458038483E0,9.817778145E0
8.183275417E-1,9.430090027E0,1.519340515E-1,2.353705444E0,9.720576690E0
8.283755417E-1,9.414971466E0,6.511459351E-2,2.351011047E0,9.704286711E0
8.384225417E-1,9.401948547E0,3.697311401E-2,2.366728363E0,9.695329115E0
8.484705417E-1,9.417516174E0,7.798782349E-2,2.436483307E0,9.727905422E0
8.585185417E-1,9.445058899E0,1.428030396E-1,2.548001404E0,9.783753956E0
8.685655417E-1,9.480235748E0,1.695973206E-1,2.604883118E0,9.833058993E0
8.786135417E-1,9.487720184E0,2.014810181E-1,2.691253510E0,9.864090143E0
8.886615417E-1,9.502539368E0,1.707948303E-1,2.759810944E0,9.896665183E0
8.987085417E-1,9.513017578E0,1.270857239E-1,2.744692383E0,9.901868031E0
9.087565417E-1,9.482481079E0,1.284329224E-1,2.663561096E0,9.850304571E0
9.188035417E-1,9.438622284E0,1.839674377E-1,2.575693817E0,9.785480738E0
9.288515417E-1,9.391021271E0,2.158511353E-1,2.478695526E0,9.715029785E0
9.388995417E-1,9.427994385E0,2.091151428E-1,2.397264862E0,9.730245941E0
9.489465417E-1,9.519603882E0,1.889071655E-1,2.412832489E0,9.822438832E0
9.589945417E-1,9.597442017E0,2.037263489E-1,2.432441711E0,9.902987951E0
9.690425417E-1,9.594597931E0,1.812730408E-1,2.636168060E0,9.951811464E0
9.790895417E-1,9.578730927E0,1.886077881E-1,2.938688965E0,1.002115522E1
9.891375417E-1,9.589658203E0,3.210823059E-1,2.968327332E0,1.004368485E1
9.991855417E-1,9.628427582E0,4.186793518E-1,2.870430908E0,1.005590790E1
1.009232542E0,9.652527466E0,4.043092346E-1,2.652184753E0,1.001842485E1
1.019280542E0,9.702673187E0,3.465293884E-1,2.437980194E0,1.001027957E1
1.029327542E0,9.652826843E0,2.556683350E-1,2.367476807E0,9.942201909E0
1.039375542E0,9.551936646E0,2.210902405E-1,2.380200348E0,9.846508430E0
1.049423542E0,9.475146332E0,1.920506287E-1,2.371668091E0,9.769344450E0
1.059470542E0,9.463320923E0,1.661544800E-1,2.349813538E0,9.752111251E0
1.069518542E0,9.466464386E0,1.917512512E-1,2.355202332E0,9.756930590E0
1.079566542E0,9.427096252E0,2.251318359E-1,2.387684784E0,9.727377176E0
1.089613542E0,9.379195862E0,2.900967407E-1,2.339035950E0,9.670809703E0
1.099661542E0,9.339678040E0,3.600013733E-1,2.408790894E0,9.652018465E0
1.109708542E0,9.302106171E0,3.884422302E-1,2.446811829E0,9.626367680E0
1.119756542E0,9.318122864E0,3.921844482E-1,2.327958984E0,9.612523882E0
1.129804542E0,9.312135315E0,4.279600525E-1,2.356100464E0,9.615103917E0
1.139851542E0,9.300908661E0,5.149291992E-1,2.363435211E0,9.610300723E0
1.149899542E0,9.326355743E0,6.092330933E-1,2.392474823E0,9.647591005E0
1.159947542E0,9.492959290E0,5.885760498E-1,2.369722137E0,9.801952910E0
1.169994542E0,9.553433533E0,5.119354248E-1,2.296224976E0,9.838842375E0
1.180042542E0,9.530531158E0,4.162843323E-1,2.271676025E0,9.806366747E0
1.190089542E0,9.444609833E0,3.522175598E-1,2.200573883E0,9.703980499E0
1.200137542E0,9.481582947E0,3.110531616E-1,2.115700378E0,9.719740600E0
1.210185375E0,9.569300537E0,2.715353394E-1,2.207459564E0,9.824363691E0
1.220232375E0,9.602531433E0,2.438429260E-1,2.457140350E0,9.914918456E0
1.230280375E0,9.566905518E0,3.106040955E-1,2.458337860E0,9.882589798E0
1.240328375E0,9.598639526E0,4.590953064E-1,2.282004547E0,9.876851422E0
1.250375375E0,9.677226105E0,4.790039062E-1,2.236199799E0,9.943778928E0
1.260423375E0,9.718091125E0,4.013154602E-1,2.309397583E0,9.996782803E0
1.270470375E0,9.682614899E0,2.965333557E-1,2.427951050E0,9.986786751E0
1.280518375E0,9.505233765E0,2.556683350E-1,2.477647705E0,9.826167787E0
1.290566375E0,9.339678040E0,2.230361938E-1,2.517315216E0,9.675546854E0
1.300613375E0,9.232201538E0,2.023791504E-1,2.474354553E0,9.560174319E0
1.310661375E0,9.266629944E0,2.514770508E-1,2.336191864E0,9.559888265E0
1.320708375E0,9.466165009E0,2.975811768E-1,2.199975128E0,9.722999799E0
1.330756375E0,9.651180267E0,3.409909058E-1,2.110161896E0,9.885056326E0
1.340804375E0,9.688452759E0,3.703298950E-1,2.023941193E0,9.904524170E0
1.350851375E0,9.663155365E0,3.448828125E-1,2.027234344E0,9.879534141E0
1.360899375E0,9.619895325E0,2.978805542E-1,2.118544464E0,9.854914994E0
1.370947375E0,9.563163300E0,2.607577515E-1,2.277364197E0,9.834046704E0
1.380994375E0,9.455088043E0,2.065704346E-1,2.395468597E0,9.756004871E0
1.391042375E0,9.397158508E0,1.971400452E-1,2.372266846E0,9.693972468E0
1.401089375E0,9.462123413E0,1.630110168E-1,2.443967743E0,9.774013014E0
1.411137375E0,9.549242249E0,1.655557251E-1,2.398162994E0,9.847163143E0
1.421185375E0,9.646689606E0,1.517843628E-1,2.260449371E0,9.909151841E0
1.431232375E0,9.746232605E0,1.215472412E-1,2.246678009E0,1.000256896E1
1.441280375E0,9.773176575E0,1.200503540E-1,2.226020966E0,1.002419881E1
1.451327375E0,9.767488403E0,1.167572021E-1,2.183509369E0,1.000925447E1
1.461375375E0,9.663754120E0,5.777984619E-2,2.318229218E0,9.938091814E0
1.471423375E0,9.519154816E0,2.499801636E-2,2.430495758E0,9.824573423E0
1.481470375E0,9.361233215E0,-3.832031250E-2,2.566113739E0,9.706652125E0
1.491518375E0,9.309889984E0,-6.586303711E-3,2.587668915E0,9.662821809E0
1.501565375E0,9.441616058E0,9.385482788E-2,2.484832764E0,9.763570883E0
1.511613375E0,9.717342682E0,1.187031555E-1,2.595303040E0,1.005864986E1
1.521661375E0,9.862540741E0,7.454498291E-2,2.569706268E0,1.019208797E1
1.531708375E0,9.848919067E0,6.571334839E-2,2.389331360E0,1.013481275E1
1.541756375E0,9.808652802E0,2.903961182E-2,2.226919098E0,1.005831406E1
1.551803375E0,9.734556885E0,-8.532257080E-2,2.185605011E0,9.977261495E0
1.561851375E0,9.613758087E0,-1.330732727E-1,2.131417694E0,9.848095980E0
1.571899375E0,9.504485321E0,-7.828720093E-2,2.094893646E0,9.732931187E0
1.581946375E0,9.470955048E0,4.385879517E-2,2.202519836E0,9.723785618E0
1.591994375E0,9.468859406E0,2.107617188E-1,2.411185913E0,9.773307345E0
1.602041375E0,9.416767731E0,3.312611389E-1,2.414329376E0,9.726984876E0
1.612089375E0,9.430988159E0,3.686833191E-1,2.503693542E0,9.764627305E0
1.622137375E0,9.438173218E0,3.640429688E-1,2.617307281E0,9.801119241E0
1.632184375E0,9.485325165E0,3.038681030E-1,2.622995453E0,9.846006015E0
1.642232375E0,9.369316406E0,2.186952209E-1,2.488874359E0,9.696721771E0
1.652279375E0,9.223818970E0,1.320254517E-1,2.421364746E0,9.537257171E0
1.662327375E0,9.190139008E0,5.538482666E-2,2.355651398E0,9.487403015E0
1.672375375E0,9.236841888E0,1.137634277E-2,2.361489258E0,9.533939847E0
1.682422375E0,9.332193604E0,6.646179199E-2,2.408940582E0,9.638321916E0
1.692470375E0,9.404044189E0,1.463955688E-1,2.440674591E0,9.716705781E0
1.702517375E0,9.445058899E0,1.842668152E-1,2.525697784E0,9.778662545E0
1.712565375E0,9.524693298E0,1.990859985E-1,2.648741913E0,9.888136902E0
1.722613375E0,9.583520966E0,2.082170105E-1,2.724634094E0,9.965483399E0
1.732660375E0,9.619296570E0,2.356100464E-1,2.778372345E0,1.001527491E1
1.742708375E0,9.588161316E0,2.460882568E-1,2.748883667E0,9.977462516E0
1.752755375E0,9.540410614E0,1.698966980E-1,2.775827637E0,9.937480498E0
1.762803375E0,9.490264893E0,7.125183105E-2,2.761158142E0,9.884037578E0
1.772851375E0,9.400751038E0,-4.116439819E-2,2.721191254E0,9.786761283E0
1.782898375E0,9.357790375E0,-9.819580078E-2,2.592159576E0,9.710673220E0
1.792946375E0,9.466763763E0,-8.397537231E-2,2.506238251E0,9.793257792E0
1.802993375E0,9.617649994E0,-5.119354248E-2,2.509531403E0,9.939796781E0
1.813041375E0,9.718989258E0,-2.365081787E-2,2.470612335E0,1.002812230E1
1.823089375E0,9.688901825E0,-4.745132446E-2,2.414179688E0,9.985255819E0
1.833136375E0,9.591903534E0,-1.377136230E-1,2.320923615E0,9.869663868E0
1.843184375E0,9.504635010E0,-2.171983337E-1,2.190095673E0,9.756115049E0
1.853231375E0,9.536219330E0,-2.888992310E-1,2.128872986E0,9.775225934E0
1.863279375E0,9.605824585E0,-3.360511780E-1,2.078577576E0,9.833884334E0
1.873326375E0,9.586963806E0,-3.270698547E-1,2.018851776E0,9.802683929E0
1.883374375E0,9.551337891E0,-2.978805542E-1,2.036215668E0,9.770514959E0
1.893422375E0,9.577383728E0,-2.103126526E-1,2.088457031E0,9.804701079E0
1.903469375E0,9.639354858E0,-1.365161133E-1,2.173330536E0,9.882265143E0
1.913517375E0,9.698930969E0,-1.290316772E-1,2.216141510E0,9.949733379E0
1.923564375E0,9.645641785E0,-2.110610962E-1,2.213596802E0,9.898634402E0
1.933612375E0,9.600286102E0,-2.838098145E-1,2.190844116E0,9.851184660E0
1.943660375E0,9.617500305E0,-2.959346008E-1,2.170935516E0,9.863916586E0
1.953707375E0,9.631271667E0,-3.308120728E-1,2.223476257E0,9.890130294E0
1.963755375E0,9.669442291E0,-3.378474426E-1,2.243085480E0,9.931952859E0
1.973802375E0,9.673932953E0,-3.665876770E-1,2.274819489E0,9.944554742E0
1.983850375E0,9.641749878E0,-4.180805969E-1,2.268083496E0,9.913744744E0
1.993897375E0,9.704768829E0,-4.824467468E-1,2.258653107E0,9.975811082E0
2.003945375E0,9.772727509E0,-5.376818848E-1,2.238744507E0,1.004028295E1
2.013993375E0,9.741143188E0,-5.882766724E-1,2.166295166E0,9.996438106E0
2.024040375E0,9.630523224E0,-5.930667114E-1,2.079475708E0,9.870305209E0
2.034088375E0,9.531728668E0,-6.074368286E-1,2.087109833E0,9.776444055E0
2.044135375E0,9.394314423E0,-6.532415771E-1,2.189496918E0,9.668183117E0
2.054183375E0,9.302405548E0,-7.018904114E-1,2.341580658E0,9.618232640E0
2.064231375E0,9.241182861E0,-7.698490906E-1,2.547851715E0,9.616843383E0
2.074278375E0,9.287885742E0,-7.952961731E-1,2.689606934E0,9.702128788E0
2.084326375E0,9.504185944E0,-8.271798706E-1,2.828667755E0,9.950635068E0
2.094373375E0,9.760902100E0,-8.517288208E-1,2.935545502E0,1.022829796E1
2.104421375E0,9.931696930E0,-7.873626709E-1,2.939736786E0,1.038752118E1
2.114468375E0,9.988279266E0,-7.304809570E-1,2.950065308E0,1.044041237E1
2.124516375E0,9.839488678E0,-7.188052368E-1,2.978655853E0,1.030556205E1
2.134564375E0,9.631870422E0,-6.915618896E-1,2.837649078E0,1.006496090E1
2.144611375E0,9.516310730E0,-5.869294739E-1,2.674488373E0,9.902400930E0
2.154659375E0,9.475146332E0,-4.864883423E-1,2.502346344E0,9.812074508E0
2.164706375E0,9.451944580E0,-4.008663940E-1,2.325114899E0,9.741976673E0
2.174754375E0,9.463021545E0,-3.281176758E-1,2.207459564E0,9.722618768E0
2.184801375E0,9.492360535E0,-2.999761963E-1,2.170636139E0,9.741999563E0
2.194849375E0,9.497749329E0,-3.297642517E-1,2.209555206E0,9.756952443E0
2.204897625E0,9.496402130E0,-3.941304016E-1,2.230062561E0,9.762692826E0
2.214944625E0,9.483828278E0,-4.468208313E-1,2.276166687E0,9.763379663E0
2.224992625E0,9.526639252E0,-4.155358887E-1,2.285148010E0,9.805683400E0
2.235039625E0,9.658065948E0,-3.577560425E-1,2.267484741E0,9.927120141E0
2.245087625E0,9.804162140E0,-2.857557678E-1,2.263293457E0,1.006606919E1
2.255134625E0,9.821825409E0,-2.799179077E-1,2.287992096E0,1.008868258E1
2.265182625E0,9.751771088E0,-3.165916443E-1,2.149679718E0,9.990915499E0
2.275230625E0,9.785151672E0,-3.126997375E-1,2.042053528E0,1.000084781E1
2.285277625E0,9.853110352E0,-3.366499329E-1,1.949096832E0,1.004968135E1
2.295325625E0,9.898166656E0,-4.311035156E-1,1.978435822E0,1.010315603E1
2.305372625E0,9.840386810E0,-5.092410278E-1,2.077829132E0,1.007024890E1
2.315420625E0,9.726024628E0,-5.144801331E-1,2.132914581E0,9.970434769E0
2.325467625E0,9.615704041E0,-5.774990845E-1,2.321821747E0,9.908891240E0
2.335515625E0,9.469458160E0,-7.238946533E-1,2.568808136E0,9.838365543E0
2.345562625E0,9.314979401E0,-8.273295593E-1,2.579436035E0,9.700866234E0
2.355610625E0,9.334738312E0,-8.418493652E-1,2.584375763E0,9.722399281E0
2.365658625E0,9.448501740E0,-8.024812317E-1,2.622396698E0,9.838451387E0
2.375705625E0,9.544601898E0,-7.798782349E-1,2.584375763E0,9.919003657E0
2.385753625E0,9.526190186E0,-7.367678833E-1,2.566712494E0,9.893388671E0
2.395800625E0,9.389524384E0,-7.315287781E-1,2.591710510E0,9.768073806E0
2.405848625E0,9.253307648E0,-6.933581543E-1,2.530338135E0,9.618059005E0
2.415895625E0,9.211394806E0,-6.782395935E-1,2.456840973E0,9.557503376E0
2.425943625E0,9.241033173E0,-6.951544189E-1,2.488574982E0,9.595464512E0
2.435991625E0,9.216035156E0,-7.512876892E-1,2.607876892E0,9.607328405E0
2.446038625E0,9.472601624E0,-7.848179626E-1,2.799628143E0,9.908785924E0
2.456086625E0,9.664053497E0,-7.899073792E-1,2.901416473E0,1.012107214E1
2.466133625E0,9.702074432E0,-7.885601807E-1,2.935246124E0,1.016699293E1
2.476181625E0,9.710756378E0,-9.069639587E-1,2.966381378E0,1.019415477E1
2.486228625E0,9.642797699E0,-1.027014313E0,2.965183868E0,1.014054344E1
2.496276625E0,9.545350342E0,-1.137634277E0,3.004252625E0,1.007141791E1
2.506323625E0,9.463470612E0,-1.207089844E0,3.030897217E0,1.001002896E1
2.516371625E0,9.451196136E0,-1.141526184E0,2.890788574E0,9.949112977E0
2.526419625E0,9.543703766E0,-1.000369720E0,2.923570404E0,1.003146475E1
2.536466625E0,9.637408905E0,-8.904981995E-1,2.947221222E0,1.011725014E1
2.546514625E0,9.682165833E0,-8.860075378E-1,3.022065582E0,1.018146477E1
2.556561625E0,9.595945129E0,-9.794132996E-1,3.105292511E0,1.013332398E1
2.566609625E0,9.447154541E0,-1.099763031E0,3.097957764E0,1.000277711E1
2.576656625E0,9.364825745E0,-1.216669922E0,3.065625000E0,9.928660714E0
2.586704625E0,9.380842438E0,-1.355431366E0,3.190465393E0,1.000082339E1
2.596751625E0,9.303453369E0,-1.435814209E0,3.257226562E0,9.961191290E0
2.606799625E0,9.203910370E0,-1.427281952E0,3.164868622E0,9.836945322E0
2.616847625E0,9.136550446E0,-1.365759888E0,2.858306122E0,9.670148293E0
2.626894625E0,9.213041382E0,-1.264420624E0,2.662064209E0,9.672924939E0
2.636942625E0,9.297166443E0,-1.240620117E0,2.558778992E0,9.722334703E0
2.646989625E0,9.232800293E0,-1.223854980E0,2.401905212E0,9.618293555E0
2.657037625E0,9.162745972E0,-1.159937897E0,2.306254120E0,9.519463101E0
2.667084625E0,9.089697876E0,-1.101259918E0,2.162103882E0,9.407979277E0
2.677132625E0,9.178014221E0,-1.023272095E0,2.066303101E0,9.463225630E0
2.687179625E0,9.351503448E0,-1.023721161E0,2.255060577E0,9.673878228E0
2.697227625E0,9.386829987E0,-1.106648712E0,2.590063934E0,9.800289779E0
2.707275625E0,9.521849213E0,-1.143771515E0,2.811902618E0,9.994029320E0
2.717322625E0,9.744436340E0,-1.031954041E0,2.892734528E0,1.021698986E1
2.727370625E0,9.949809265E0,-8.891510010E-1,2.956052856E0,1.041765532E1
2.737417625E0,1.018781433E1,-9.638456726E-1,2.860850830E0,1.062567771E1
2.747465625E0,1.037866745E1,-1.229692841E0,2.857258301E0,1.083479615E1
2.757512625E0,1.032971924E1,-1.542991333E0,2.918331299E0,1.084438008E1
2.767560625E0,1.010428802E1,-1.835932159E0,2.857258301E0,1.065979401E1
2.777607625E0,9.812095642E0,-1.981429596E0,2.572849731E0,1.033551353E1
2.787655625E0,9.617799683E0,-2.002236328E0,2.202220459E0,1.006780989E1
2.797702625E0,9.436975708E0,-1.988464966E0,2.009421387E0,9.851308428E0
2.807750625E0,9.155710602E0,-2.019450531E0,1.890867920E0,9.564549052E0
2.817798625E0,8.859027557E0,-2.045945435E0,1.751208344E0,9.259319232E0
2.827845625E0,8.713081055E0,-1.957629089E0,1.744322662E0,9.099052405E0
2.837893625E0,8.759484558E0,-1.887425079E0,2.134860535E0,9.211328496E0
2.847940625E0,8.984466705E0,-1.838626556E0,2.451152802E0,9.492593937E0
2.857988625E0,9.385782166E0,-1.806144104E0,2.555635529E0,9.893752389E0
2.868035625E0,9.792336731E0,-1.882784729E0,2.699187012E0,1.033055408E1
2.878083625E0,1.000624191E1,-1.949845276E0,2.665057983E0,1.053704455E1
2.888130625E0,9.862540741E0,-1.998344421E0,2.595452728E0,1.039227911E1
2.898178625E0,9.321416016E0,-2.175575867E0,2.412682800E0,9.871320336E0
2.908225625E0,8.780890045E0,-2.122436371E0,2.105072479E0,9.275780090E0
2.918273625E0,8.479566650E0,-1.860930176E0,1.760189667E0,8.858012156E0
2.928320625E0,8.561296692E0,-1.544188843E0,1.876348114E0,8.899494507E0
2.938368625E0,8.813821564E0,-1.347348175E0,2.318528595E0,9.212728831E0
2.948416625E0,9.111702118E0,-1.374591522E0,2.752027130E0,9.616978250E0
2.958463625E0,9.555529175E0,-1.471889191E0,2.921325073E0,1.009993741E1
2.968511625E0,1.009201355E1,-1.534758453E0,2.960693207E0,1.062873112E1
2.978558625E0,1.063703018E1,-1.721719666E0,2.905458069E0,1.116030539E1
2.988606625E0,1.085407883E1,-2.005679169E0,3.309168549E0,1.152321017E1
2.998653625E0,1.042177780E1,-2.252066803E0,3.318598938E0,1.116684182E1
3.008701625E0,9.743089142E0,-2.270478516E0,3.076103210E0,1.046638761E1
3.018748625E0,9.117240601E0,-2.112257538E0,2.765648804E0,9.758817622E0
3.028796625E0,8.821904755E0,-2.044897614E0,2.630330200E0,9.430071405E0
3.038843625E0,8.958720245E0,-2.094743958E0,2.922672272E0,9.653426018E0
3.048891625E0,9.090596008E0,-2.023641815E0,3.145558777E0,9.829984842E0
3.058938625E0,9.177415466E0,-1.891915741E0,3.173101501E0,9.893071967E0
3.068986625E0,9.392817535E0,-1.749262390E0,3.159030762E0,1.006302219E1
3.079033625E0,9.725575562E0,-1.682052155E0,2.945424957E0,1.030007998E1
3.089081625E0,1.012524445E1,-1.662442932E0,2.994971924E0,1.068897322E1
3.099128625E0,1.012793884E1,-2.006726990E0,3.065774689E0,1.077037942E1
3.109176625E0,9.655221863E0,-2.317181396E0,2.865640869E0,1.033462803E1
3.119224625E0,9.169781342E0,-2.252216492E0,2.325563965E0,9.724485422E0
3.129271625E0,8.764424286E0,-1.989961853E0,1.958527222E0,9.198418892E0
3.139319625E0,8.388106842E0,-1.807640991E0,1.804048462E0,8.768266260E0
3.149366625E0,8.175848236E0,-1.808838501E0,1.751058655E0,8.554682783E0
3.159414625E0,8.475375366E0,-2.022893372E0,1.827549591E0,8.903034466E0
3.169461625E0,9.116791534E0,-2.199825439E0,2.059716797E0,9.601955693E0
3.179509625E0,9.861642609E0,-2.230062561E0,2.132764893E0,1.033314376E1
3.189556625E0,1.058209442E1,-2.283501434E0,2.404449921E0,1.108947612E1
3.199604625E0,1.091530151E1,-2.356699219E0,2.414628754E0,1.142489695E1
3.209651625E0,1.087144272E1,-2.302960968E0,2.478396149E0,1.138570786E1
3.219699625E0,1.030966095E1,-2.277364197E0,2.567161560E0,1.086580945E1
3.229746625E0,9.455686798E0,-2.160457306E0,2.386786652E0,9.988710583E0
3.239794625E0,8.692723389E0,-1.955832825E0,2.204914856E0,9.178800111E0
3.249841625E0,8.090825043E0,-1.868863678E0,2.347717896E0,8.629361543E0
3.259889625E0,7.683971100E0,-1.970652008E0,2.505789185E0,8.319005989E0
3.269936625E0,7.621101837E0,-2.111658783E0,2.759212189E0,8.375771483E0
3.279984625E0,7.768096161E0,-2.157912598E0,2.953059082E0,8.586062118E0
3.290032625E0,8.136929169E0,-2.155667267E0,2.901566162E0,8.903684847E0
3.300079625E0,8.985963593E0,-2.136656799E0,2.953208771E0,9.697127719E0
3.310127625E0,9.830956421E0,-1.999541931E0,3.067570953E0,1.049075134E1
3.320174625E0,1.014919464E1,-1.954186249E0,2.935545502E0,1.074441358E1
3.330222625E0,9.949509888E0,-2.158211975E0,2.834056549E0,1.056799425E1
3.340269625E0,9.594448242E0,-2.241588593E0,2.662513275E0,1.020623013E1
3.350317625E0,9.363927612E0,-2.042502594E0,2.554138641E0,9.918597752E0
3.360364625E0,9.291478271E0,-1.752854919E0,2.441123657E0,9.765405959E0
3.370412625E0,9.331445160E0,-1.594484253E0,2.384990387E0,9.762501111E0
3.380459625E0,9.482181702E0,-1.601070557E0,2.394720154E0,9.910089877E0
3.390507625E0,9.749825134E0,-1.685345306E0,2.334395599E0,1.016606521E1
3.400554625E0,1.005249573E1,-1.905387726E0,2.208657074E0,1.046715524E1
3.410602625E0,1.020008881E1,-2.200873260E0,2.223476257E0,1.066909094E1
3.420649625E0,9.877060547E0,-2.565065918E0,2.238744507E0,1.044738557E1
3.430697625E0,9.289831696E0,-2.824177094E0,2.115101624E0,9.937333851E0
3.440744625E0,8.766220551E0,-2.835403748E0,1.925146637E0,9.412349692E0
3.450792625E0,8.483608246E0,-2.600691833E0,1.605112152E0,9.017294045E0
3.460839625E0,8.449778595E0,-2.310744781E0,1.374292145E0,8.867185498E0
3.470887625E0,8.663085022E0,-2.051633606E0,1.191671906E0,8.982111360E0
3.480934625E0,9.195976868E0,-1.895657959E0,1.407972107E0,9.494308564E0
3.490982625E0,9.826765137E0,-1.835932159E0,1.627116394E0,1.012834970E1
3.501029625E0,1.039378601E1,-1.959575043E0,1.888472900E0,1.074416362E1
3.511077625E0,1.058059753E1,-2.235451355E0,2.230960693E0,1.104189624E1
3.521124625E0,1.024364822E1,-2.365979919E0,2.148781586E0,1.073067809E1
3.531172625E0,9.699829102E0,-2.294279022E0,2.063908081E0,1.017890551E1
3.541219625E0,9.100026398E0,-2.166744232E0,2.145638123E0,9.597344631E0
3.551267625E0,8.406817932E0,-2.202370148E0,2.417323151E0,9.020447507E0
3.561314625E0,7.692054291E0,-2.367327118E0,2.741997986E0,8.502381422E0
3.571362625E0,7.254065094E0,-2.497855682E0,2.896776123E0,8.200735047E0
3.581409625E0,7.208559723E0,-2.527344360E0,3.072360992E0,8.233480726E0
3.591457625E0,7.425758057E0,-2.464924164E0,2.933000793E0,8.355849897E0
3.601504625E0,7.937244415E0,-2.456541595E0,2.805615692E0,8.769602325E0
3.611552625E0,8.496032410E0,-2.520608368E0,2.680475922E0,9.258562762E0
3.621599625E0,8.984317017E0,-2.500550079E0,2.491119690E0,9.652791320E0
3.631647625E0,9.282796326E0,-2.372117157E0,2.273322601E0,9.847093128E0
3.641695625E0,9.374705200E0,-2.394121399E0,2.093845825E0,9.899550758E0
3.651742625E0,9.417366486E0,-2.510878601E0,2.015708313E0,9.952606838E0
3.661790625E0,9.269024963E0,-2.533032532E0,2.086211700E0,9.832769541E0
3.671837625E0,9.024583282E0,-2.535128174E0,2.067051544E0,9.599097893E0
3.681885625E0,9.019493866E0,-2.442321167E0,1.936073914E0,9.542776560E0
3.691932625E0,9.024882660E0,-2.386337585E0,1.777254181E0,9.502723111E0
3.701980625E0,8.840615845E0,-2.435136108E0,1.801354065E0,9.345119199E0
3.712027625E0,8.467591553E0,-2.594105530E0,1.958527222E0,9.070023103E0
3.722075625E0,8.135132904E0,-2.793490906E0,2.148482208E0,8.865661544E0
3.732122625E0,8.045469360E0,-2.712958374E0,2.223625946E0,8.776914761E0
3.742170625E0,8.130193176E0,-2.533481598E0,2.107916565E0,8.772792163E0
3.752217625E0,8.334069214E0,-2.768343201E0,1.822460175E0,8.968934988E0
3.762265625E0,8.712182922E0,-3.188220062E0,1.632654877E0,9.419789827E0
3.772312625E0,9.035959625E0,-3.122506714E0,1.519041138E0,9.680191140E0
3.782360625E0,9.239236908E0,-2.670297089E0,1.538949738E0,9.739730565E0
3.792407625E0,9.388027496E0,-2.202819214E0,1.654359741E0,9.783883631E0
3.802455625E0,9.640851746E0,-1.948947144E0,2.008972321E0,1.003894353E1
3.812502625E0,9.810748444E0,-1.965412903E0,2.425406342E0,1.029544699E1
3.822550625E0,9.756261749E0,-2.101779327E0,2.577041016E0,1.030743712E1
3.832597625E0,9.630223846E0,-2.237846375E0,2.571502533E0,1.021576199E1
3.842645625E0,9.457483063E0,-2.510130157E0,2.418221283E0,1.007931215E1
3.852692625E0,9.289682007E0,-2.870580597E0,2.143093414E0,9.956468959E0
3.862740625E0,9.222920837E0,-3.179837494E0,1.589544525E0,9.884345555E0
3.872787625E0,9.339079285E0,-3.464695129E0,1.414109344E0,1.006092538E1
3.882835625E0,9.359586639E0,-3.610791321E0,1.467248840E0,1.013866338E1
3.892882625E0,9.239236908E0,-3.649860077E0,1.591191101E0,1.006065934E1
3.902930625E0,9.076674957E0,-3.475622406E0,1.871857452E0,9.897970990E0
3.912977625E0,8.754095764E0,-3.285667419E0,2.077829132E0,9.578474667E0
3.923025625E0,8.612041168E0,-3.381168823E0,2.420765991E0,9.563454589E0
3.933072625E0,8.632847900E0,-3.465742950E0,2.435734863E0,9.616144830E0
3.943120625E0,8.860823822E0,-3.473077698E0,2.228415985E0,9.774574431E0
3.953167625E0,9.036259003E0,-3.617976379E0,2.150278473E0,9.968321190E0
3.963215625E0,9.009315033E0,-3.672014008E0,1.721869354E0,9.880095056E0
3.973262625E0,8.977131958E0,-3.538491669E0,1.278491364E0,9.733671540E0
3.983310625E0,8.928782501E0,-3.455115051E0,1.158141632E0,9.643768403E0
3.993357625E0,8.825796661E0,-3.584446106E0,1.401685181E0,9.628481809E0
4.003404625E0,8.657396851E0,-3.644022217E0,1.560055847E0,9.521722134E0
4.013452625E0,8.552914124E0,-3.585344238E0,1.625320129E0,9.415343798E0
4.023499625E0,8.539142761E0,-3.497476959E0,1.623823242E0,9.369424000E0
4.033547625E0,8.740025024E0,-3.429967346E0,1.648970947E0,9.532671116E0
4.043594625E0,9.249864807E0,-3.435206451E0,1.846410370E0,1.003841987E1
4.053642625E0,9.667047272E0,-3.352278900E0,1.991458740E0,1.042379416E1
4.063689625E0,9.767787781E0,-2.971620483E0,1.727557526E0,1.035493416E1
4.073737625E0,9.673783264E0,-2.607278137E0,1.443448334E0,1.012242683E1
4.083784625E0,9.466165009E0,-2.498903503E0,1.548679504E0,9.912174680E0
4.093832625E0,9.103169861E0,-2.621648254E0,1.810934143E0,9.644699247E0
4.103879625E0,8.572822723E0,-2.664908295E0,1.893412628E0,9.174967959E0
4.113927625E0,8.147706757E0,-2.603835297E0,1.854643250E0,8.752415965E0
4.123974625E0,8.001311188E0,-2.532284088E0,1.752405853E0,8.573468942E0
4.134022625E0,8.063432007E0,-2.408790894E0,1.236728210E0,8.505921817E0
4.144069625E0,8.296197968E0,-2.150577850E0,8.922944641E-1,8.616732282E0
4.154117625E0,8.405171356E0,-1.691332855E0,8.669970703E-1,8.617377575E0
4.164164625E0,8.856782227E0,-1.210682373E0,1.077010345E0,9.003793340E0
4.174212625E0,9.067993011E0,-9.428892517E-1,2.102976837E0,9.356283930E0
4.184259625E0,7.273824005E0,4.149371338E-1,2.856210480E0,7.825511280E0
4.194307625E0,5.393883362E0,1.504072266E0,2.496059418E0,6.130784919E0
4.204354292E0,5.008135529E0,1.293909302E0,1.603465576E0,5.415415460E0
4.214402292E0,4.981640625E0,1.190474396E0,1.480571136E0,5.331609841E0
4.224449292E0,5.423671417E0,1.152154083E0,1.490151215E0,5.741447667E0
4.234497292E0,6.237978058E0,1.135688324E0,1.557062073E0,6.528905001E0
4.244544292E0,7.114405518E0,1.050365753E0,1.659000092E0,7.380400761E0
4.254592292E0,7.833659821E0,8.352630615E-1,1.731299744E0,8.066057858E0
4.264639292E0,8.222251740E0,5.062472534E-1,1.751507721E0,8.421964690E0
4.274687292E0,8.289312286E0,1.344204712E-1,1.768721924E0,8.476977308E0
4.284734292E0,8.143216095E0,-2.603086853E-1,1.758393402E0,8.334967087E0
4.294782292E0,8.170908508E0,-6.352789307E-1,1.856289825E0,8.403162327E0
4.304829292E0,8.691825256E0,-9.592053223E-1,2.123334503E0,8.998691602E0
4.314877292E0,9.739346924E0,-1.296304321E0,2.556982727E0,1.015250925E1
4.324924292E0,1.085692291E1,-1.639690247E0,3.084336090E0,1.140502031E1
4.334972292E0,1.183753372E1,-1.985321503E0,3.608845367E0,1.253365354E1
4.345019292E0,1.262100449E1,-2.271226959E0,4.098177795E0,1.346266272E1
4.355066292E0,1.292577072E1,-2.487976227E0,4.429139557E0,1.388822709E1
4.365114292E0,1.261621445E1,-2.555336151E0,4.471950531E0,1.362706687E1
4.375161292E0,1.184052750E1,-2.509381714E0,4.273163910E0,1.283569312E1
4.385209292E0,1.122545654E1,-2.488275604E0,4.038002930E0,1.218638001E1
4.395256292E0,1.111348938E1,-2.580034790E0,3.924838257E0,1.206526341E1
4.405304292E0,1.130733627E1,-2.730172577E0,3.870351563E0,1.225925435E1
4.415351292E0,1.200189194E1,-3.026705933E0,3.946393433E0,1.299155033E1
4.425399292E0,1.284972885E1,-3.358865204E0,4.026776276E0,1.387848818E1
4.435446292E0,1.338082443E1,-3.645519104E0,3.992048492E0,1.443165698E1
4.445494292E0,1.355416397E1,-3.840713196E0,3.839216309E0,1.460157597E1
4.455541292E0,1.346105759E1,-3.901786194E0,3.622017975E0,1.447560089E1
4.465589292E0,1.317290680E1,-3.858975220E0,3.411106567E0,1.414400266E1
4.475636292E0,1.301408707E1,-3.768263855E0,3.290607147E0,1.394253815E1
4.485684292E0,1.311377975E1,-3.663481750E0,3.302432556E0,1.401065233E1
4.495731292E0,1.347782272E1,-3.487747192E0,3.477568359E0,1.434954938E1
4.505779292E0,1.395248566E1,-3.227588196E0,3.745810547E0,1.480271185E1
4.515826292E0,1.454465424E1,-2.873125305E0,4.085753632E0,1.537840039E1
4.525874292E0,1.515089355E1,-2.465971985E0,4.505929871E0,1.599793728E1
4.535921292E0,1.555984314E1,-1.984573059E0,4.876110077E0,1.642631116E1
4.545968292E0,1.547077835E1,-1.416953430E0,5.068460083E0,1.634142061E1
4.556016292E0,1.477277985E1,-8.216413879E-1,4.958738251E0,1.560446103E1
4.566063292E0,1.365370697E1,-3.239263916E-1,4.623734894E0,1.441900020E1
4.576111292E0,1.246862137E1,1.341210938E-1,4.164190521E0,1.314629187E1
4.586158292E0,1.163395706E1,5.764512634E-1,3.754941559E0,1.223849824E1
4.596206292E0,1.121767273E1,1.072968750E0,3.426075439E0,1.177817627E1
4.606253292E0,1.108160568E1,1.605112152E0,3.163671112E0,1.163559987E1
4.616301292E0,1.089629105E1,2.060315552E0,2.895877991E0,1.146124636E1
4.626348292E0,1.045994843E1,2.419867859E0,2.573598175E0,1.104036635E1
4.636396292E0,9.814939728E0,2.563569031E0,2.279160461E0,1.039709096E1
4.646443292E0,9.210047607E0,2.527793427E0,2.041155396E0,9.766321308E0
4.656491292E0,8.803043976E0,2.434088287E0,1.929337921E0,9.334919059E0
4.666538292E0,8.769214325E0,2.301464081E0,1.953886871E0,9.274347993E0
4.676586292E0,9.145382080E0,2.157463531E0,2.158211975E0,9.641086101E0
4.686633292E0,9.939780121E0,2.005230103E0,2.530487823E0,1.045100690E1
4.696681292E0,1.091964249E1,1.776655426E0,3.007396088E0,1.146470792E1
4.706728292E0,1.184636536E1,1.444346466E0,3.509152679E0,1.243931917E1
4.716775292E0,1.243119919E1,1.029259644E0,3.901786194E0,1.306973696E1
4.726823292E0,1.260109589E1,5.616320801E-1,4.158352661E0,1.328137587E1
4.736870292E0,1.256352402E1,1.203497314E-1,4.281247101E0,1.327349602E1
4.746918292E0,1.243628860E1,-2.844085693E-1,4.300556946E0,1.316195094E1
4.756965292E0,1.240949432E1,-6.294410706E-1,4.286186829E0,1.314393940E1
4.767013292E0,1.247999771E1,-9.434880066E-1,4.247567139E0,1.321674465E1
4.777060292E0,1.263492554E1,-1.238225098E0,4.197720795E0,1.337143988E1
4.787108292E0,1.265648071E1,-1.491797791E0,4.053121490E0,1.337309831E1
4.797155292E0,1.236653366E1,-1.688788147E0,3.824397125E0,1.305408647E1
4.807203292E0,1.197943863E1,-1.829944611E0,3.576961670E0,1.263528005E1
4.817250292E0,1.096604599E1,-1.828896790E0,3.160527649E0,1.155802592E1
4.827298292E0,1.007345215E1,-1.820065155E0,2.814147949E0,1.061633195E1
4.837345292E0,9.805659027E0,-1.878144379E0,2.694247284E0,1.034105138E1
4.847392292E0,9.827812958E0,-1.964365082E0,2.681673431E0,1.037477759E1
4.857440292E0,1.045381119E1,-2.116897888E0,2.870879974E0,1.104560441E1
4.867487292E0,1.062490540E1,-2.170785828E0,2.946921844E0,1.123767210E1
4.877535292E0,1.000728973E1,-2.045346680E0,2.844235382E0,1.060278104E1
4.887582292E0,9.094787292E0,-1.854493561E0,2.671494598E0,9.658736235E0
4.897630292E0,8.624615021E0,-1.729653168E0,2.614014130E0,9.176532799E0
4.907677292E0,8.475375366E0,-1.658700714E0,2.645748138E0,9.032345148E0
4.917725292E0,8.743767242E0,-1.609602814E0,2.821782074E0,9.327740395E0
4.927772292E0,8.645721130E0,-1.521885223E0,2.848127289E0,9.229109250E0
4.937820292E0,8.023016052E0,-1.451980591E0,2.224823456E0,8.451442103E0
4.947867292E0,7.968529358E0,-1.297501831E0,2.231110382E0,8.376086477E0
4.957914292E0,8.002658386E0,-1.100511475E0,2.607128448E0,8.488273411E0
4.967962292E0,8.221203918E0,-9.608518982E-1,2.775228882E0,8.730024375E0
4.978009292E0,8.662635956E0,-7.536827087E-1,2.890189819E0,9.163105179E0
4.988057292E0,8.844657440E0,-5.131329346E-1,2.715503082E0,9.266349207E0
4.998104292E0,8.977581024E0,-2.510279846E-1,2.443967743E0,9.307682548E0
5.008152292E0,8.971743164E0,7.095245361E-2,2.357896729E0,9.276685110E0
5.018199292E0,8.559350739E0,3.926335144E-1,2.085762634E0,8.818562916E0
5.028247292E0,7.668553162E0,6.559359741E-1,1.715133362E0,7.885343496E0
5.038294292E0,6.616091766E0,8.184979248E-1,1.441951447E0,6.820691540E0
5.048342292E0,5.716462555E0,9.406439209E-1,1.240470428E0,5.924653746E0
5.058389292E0,5.145400085E0,1.048569489E0,1.080153809E0,5.361098046E0
5.068436292E0,4.851561127E0,1.164578247E0,1.074166260E0,5.103696799E0
5.078484292E0,4.763394470E0,1.333576813E0,1.032403107E0,5.053138645E0
5.088531292E0,4.923711090E0,1.543889465E0,1.052760773E0,5.266386885E0
5.098579292E0,5.245691528E0,1.773961029E0,1.141226807E0,5.653902720E0
5.108626292E0,5.567522278E0,1.947001190E0,1.255738678E0,6.030339756E0
5.118674292E0,5.827830963E0,2.003284149E0,1.361867981E0,6.311215851E0
5.128721292E0,5.921386414E0,1.980531464E0,1.456471252E0,6.411445270E0
5.138769292E0,5.891149292E0,1.832339630E0,1.537901917E0,6.358321383E0
5.148816292E0,5.802533569E0,1.627565460E0,1.598974915E0,6.234988847E0
5.158863292E0,5.873935089E0,1.428778839E0,1.707948303E0,6.281847643E0
5.168911292E0,6.203100586E0,1.268761597E0,1.862127686E0,6.599676688E0
5.178958292E0,6.670129395E0,1.116977234E0,2.070045319E0,7.072718848E0
5.189006292E0,6.897955627E0,8.928932190E-1,2.189796295E0,7.292068153E0
5.199053292E0,7.283553772E0,6.616241455E-1,2.327958984E0,7.675108800E0
5.209101250E0,8.094118195E0,4.905299377E-1,2.599045258E0,8.515304177E0
5.219148250E0,9.009464722E0,2.529739380E-1,2.870879974E0,9.459196700E0
5.229196250E0,1.008003845E1,4.939727783E-3,3.158881073E0,1.056341466E1
5.239243250E0,1.105930206E1,-3.077600098E-1,3.398682404E0,1.157384640E1
5.249290250E0,1.176029434E1,-6.499484253E-1,3.539539490E0,1.229858918E1
5.259338250E0,1.214723969E1,-1.046174469E0,3.571872253E0,1.270465208E1
5.269385250E0,1.223989700E1,-1.410516815E0,3.538641357E0,1.281899446E1
5.279433250E0,1.223525665E1,-1.728755035E0,3.485651550E0,1.283899786E1
5.289480250E0,1.233045868E1,-1.984273682E0,3.484603729E0,1.296611030E1
5.299528250E0,1.262789017E1,-2.242786102E0,3.592678986E0,1.331919824E1
5.309575250E0,1.302815781E1,-2.451003113E0,3.761527863E0,1.378003643E1
5.319623250E0,1.311707291E1,-2.561323700E0,3.849544830E0,1.390816221E1
5.329670250E0,1.321017929E1,-2.631976776E0,3.985312500E0,1.404702297E1
5.339717250E0,1.345432159E1,-2.696791992E0,4.173022156E0,1.434243949E1
5.349765250E0,1.368574036E1,-2.697241058E0,4.351151733E0,1.461188283E1
5.359812250E0,1.385803207E1,-2.649490356E0,4.510420532E0,1.481245238E1
5.369860250E0,1.379411499E1,-2.530936890E0,4.574038239E0,1.475144317E1
5.379907250E0,1.362676300E1,-2.395169220E0,4.574337616E0,1.457223628E1
5.389955250E0,1.355760681E1,-2.268083496E0,4.559219055E0,1.448238183E1
5.400002250E0,1.377615234E1,-2.153421936E0,4.599635010E0,1.468251483E1
5.410050250E0,1.405142990E1,-2.000290375E0,4.628075867E0,1.492859438E1
5.420097250E0,1.427162201E1,-1.855691071E0,4.591851196E0,1.510655095E1
5.430144250E0,1.406310562E1,-1.594933319E0,4.415068817E0,1.482590924E1
5.440192250E0,1.348381027E1,-1.285826111E0,4.098926239E0,1.415159654E1
5.450239250E0,1.373319168E1,-9.978250122E-1,4.064647522E0,1.435679518E1
5.460287250E0,1.391536285E1,-6.698570251E-1,4.033961334E0,1.450375385E1
5.470334250E0,1.388018600E1,-3.254232788E-1,3.979774017E0,1.444313211E1
5.480382250E0,1.361897919E1,6.346801758E-2,3.885021057E0,1.416241543E1
5.490429250E0,1.314925598E1,4.537065125E-1,3.752546539E0,1.368175383E1
5.500476250E0,1.248508713E1,7.955955505E-1,3.605552216E0,1.301961519E1
5.510524250E0,1.187720123E1,1.063089294E0,3.490740967E0,1.242510927E1
5.520571250E0,1.144804367E1,1.319506073E0,3.429518280E0,1.202332715E1
5.530619250E0,1.120749390E1,1.514400787E0,3.412154388E0,1.181287970E1
5.540666250E0,1.106064926E1,1.679507446E0,3.425027618E0,1.169997955E1
5.550714250E0,1.085497696E1,1.742526398E0,3.403622131E0,1.150876043E1
5.560761250E0,1.057640625E1,1.716330872E0,3.322790222E0,1.121815919E1
5.570808250E0,1.029259644E1,1.656904449E0,3.216211853E0,1.090994466E1
5.580856250E0,1.007899063E1,1.521735535E0,3.111280060E0,1.065747600E1
5.590903250E0,9.999655609E0,1.333127747E0,3.030747528E0,1.053355460E1
5.600951250E0,1.013602203E1,1.131796417E0,2.999612274E0,1.063097266E1
5.610998250E0,1.040127045E1,8.839118958E-1,3.025209045E0,1.086828491E1
5.621046250E0,1.063583267E1,5.948629761E-1,3.038082275E0,1.107721727E1
5.631093250E0,1.079899338E1,2.671943665E-1,3.061583405E0,1.122777555E1
5.641140250E0,1.092607910E1,-1.182540894E-1,3.085383911E0,1.135397650E1
5.651188250E0,1.108295288E1,-4.775070190E-1,3.170257416E0,1.153734760E1
5.661235250E0,1.127530289E1,-7.985893250E-1,3.237467651E0,1.175803542E1
5.671283250E0,1.144160706E1,-1.123713226E0,3.363505554E0,1.197857558E1
5.681330250E0,1.149145340E1,-1.412013702E0,3.444038086E0,1.207926663E1
5.691378250E0,1.148411865E1,-1.649270325E0,3.506158905E0,1.212015776E1
5.701425250E0,1.142693756E1,-1.826202393E0,3.582799530E0,1.211389160E1
5.711472250E0,1.125509491E1,-1.976040802E0,3.589086456E0,1.197762248E1
5.721520250E0,1.100361786E1,-2.055076447E0,3.531456299E0,1.173772247E1
5.731567250E0,1.060948746E1,-2.079625397E0,3.441792755E0,1.134601266E1
5.741615250E0,1.021745270E1,-2.091001740E0,3.330274658E0,1.094802983E1
5.751662250E0,9.907896423E0,-2.065255280E0,3.235372009E0,1.062540931E1
5.761710250E0,9.648485870E0,-2.052831116E0,3.160377960E0,1.035834852E1
5.771757250E0,9.444160767E0,-2.034718781E0,3.057691498E0,1.013319942E1
5.781804250E0,9.267827454E0,-2.001787262E0,2.981499939E0,9.939271595E0
5.791852250E0,9.037606201E0,-1.957479401E0,2.866838379E0,9.681364250E0
5.801899250E0,8.820557556E0,-1.919458466E0,2.754721527E0,9.437957782E0
5.811947250E0,8.644523621E0,-1.863774261E0,2.665656738E0,9.236188011E0
5.821994250E0,8.506660309E0,-1.835333405E0,2.588866425E0,9.079314274E0
5.832041250E0,8.385412445E0,-1.794917450E0,2.518662415E0,8.937590888E0
5.842089250E0,8.337961121E0,-1.770518188E0,2.477498016E0,8.876616851E0
5.852136250E0,8.321944427E0,-1.727407837E0,2.477647705E0,8.853103131E0
5.862184250E0,8.322842560E0,-1.698068848E0,2.461181946E0,8.843673595E0
5.872231250E0,8.337212677E0,-1.638043671E0,2.477198639E0,8.850356794E0
5.882279250E0,8.327333221E0,-1.590891724E0,2.506837006E0,8.840794468E0
5.892326250E0,8.341853027E0,-1.539398804E0,2.520159302E0,8.849150440E0
5.902373250E0,8.415799255E0,-1.458566895E0,2.580932922E0,8.922685092E0
5.912421250E0,8.531658325E0,-1.398990784E0,2.663261719E0,9.046509381E0
5.922468250E0,8.596473541E0,-1.301543427E0,2.702929230E0,9.104899728E0
5.932516250E0,8.547974396E0,-1.188378754E0,2.703827362E0,9.043826222E0
5.942563250E0,8.414302368E0,-1.064735870E0,2.683769073E0,8.895884625E0
5.952611250E0,8.311466217E0,-9.270222473E-1,2.650089111E0,8.772845218E0
5.962658250E0,8.289162598E0,-7.933502197E-1,2.646945648E0,8.737616517E0
5.972705250E0,8.342451782E0,-6.557862854E-1,2.658022614E0,8.780184600E0
5.982753250E0,8.371192017E0,-4.942721558E-1,2.640808411E0,8.791759199E0
5.992800250E0,8.374485168E0,-3.243754578E-1,2.623294830E0,8.781736562E0
6.002848250E0,8.297395477E0,-1.565744019E-1,2.534080353E0,8.677145296E0
6.012895250E0,8.149353333E0,-9.280700684E-3,2.455793152E0,8.511343365E0
6.022942250E0,8.005801849E0,1.513352966E-1,2.351160736E0,8.345281447E0
6.032990250E0,7.879464569E0,3.059637451E-1,2.284399567E0,8.209631970E0
6.043037250E0,7.830965424E0,4.541555786E-1,2.211950226E0,8.150030709E0
6.053085250E0,7.886350250E0,5.716612244E-1,2.169438629E0,8.199254892E0
6.063132250E0,8.003706207E0,6.767427063E-1,2.211800537E0,8.331227722E0
6.073179250E0,8.162076874E0,7.836204529E-1,2.237996063E0,8.499540357E0
6.083227250E0,8.348738708E0,8.333171082E-1,2.273023224E0,8.692668750E0
6.093274250E0,8.511749725E0,8.864566040E-1,2.361938324E0,8.877749791E0
6.103322250E0,8.741072845E0,8.657995605E-1,2.457739105E0,9.121208521E0
6.113369250E0,9.030121765E0,8.152047729E-1,2.572250977E0,9.424655591E0
6.123417250E0,9.363478546E0,7.444020081E-1,2.738555145E0,9.784096745E0
6.133464250E0,9.776020660E0,6.333329773E-1,2.926115112E0,1.022417920E1
6.143511250E0,1.023601410E1,5.041516113E-1,3.113375702E0,1.071089454E1
6.153559250E0,1.075932587E1,3.475772095E-1,3.313210144E0,1.126327059E1
6.163606250E0,1.123892853E1,1.558259583E-1,3.503464508E0,1.177336230E1
6.173654250E0,1.154324570E1,-5.029541016E-2,3.611988831E0,1.209526826E1
6.183701250E0,1.188438629E1,-2.728825378E-1,3.732787628E0,1.245980762E1
6.193748250E0,1.229528183E1,-4.867877197E-1,3.836671600E0,1.288918021E1
6.203796250E0,1.271590714E1,-7.442523193E-1,3.945046234E0,1.333460144E1
6.213843917E0,1.307426193E1,-9.683363342E-1,4.011807404E0,1.371016408E1
6.223891917E0,1.328322739E1,-1.194216614E0,4.061803436E0,1.394161147E1
6.233938917E0,1.339833801E1,-1.383572845E0,4.060605927E0,1.406834233E1
6.243985917E0,1.348860031E1,-1.549128571E0,4.064647522E0,1.417263198E1
6.254033917E0,1.359981903E1,-1.725761261E0,4.077820129E0,1.430251539E1
6.264080917E0,1.374262207E1,-1.883533173E0,4.133354645E0,1.447383775E1
6.274128917E0,1.386776184E1,-1.996847534E0,4.184847565E0,1.462242004E1
6.284175917E0,1.398137558E1,-2.090253296E0,4.243375854E0,1.475988688E1
6.294222917E0,1.412657364E1,-2.195933533E0,4.333039398E0,1.493845498E1
6.304270917E0,1.420980057E1,-2.228266296E0,4.398153992E0,1.504085640E1
6.314317917E0,1.422701477E1,-2.239642639E0,4.459077301E0,1.507671446E1
6.324365917E0,1.424602524E1,-2.226320343E0,4.513414307E0,1.510882676E1
6.334412917E0,1.430769699E1,-2.194586334E0,4.551584930E0,1.517377105E1
6.344459917E0,1.436143524E1,-2.140249329E0,4.567152557E0,1.522137878E1
6.354507917E0,1.429527283E1,-2.038760376E0,4.543801117E0,1.513794893E1
6.364554917E0,1.411085632E1,-1.857187958E0,4.467310181E0,1.491718048E1
6.374602917E0,1.389530457E1,-1.658551025E0,4.345164185E0,1.465301103E1
6.384649917E0,1.360685440E1,-1.434467010E0,4.190386047E0,1.430956035E1
6.394697917E0,1.327544357E1,-1.182391205E0,4.037703552E0,1.392618042E1
6.404744917E0,1.287547531E1,-8.744815063E-1,3.856280823E0,1.346898230E1
6.414791917E0,1.246023880E1,-5.876779175E-1,3.694916382E0,1.300981642E1
6.424839917E0,1.205503143E1,-2.733316040E-1,3.538940735E0,1.256672569E1
6.434886917E0,1.165117126E1,1.691482544E-2,3.392395477E0,1.213500824E1
6.444933917E0,1.122620499E1,2.966830444E-1,3.271446991E0,1.169692544E1
6.454981917E0,1.087323898E1,5.637277222E-1,3.150498505E0,1.133449407E1
6.465028917E0,1.056188644E1,7.858657837E-1,3.075055389E0,1.102846299E1
6.475076917E0,1.028406418E1,9.345066833E-1,3.009491730E0,1.075603641E1
6.485123917E0,9.996212769E0,1.090632019E0,2.959795074E0,1.048208638E1
6.495170917E0,9.740544434E0,1.188827820E0,2.897374878E0,1.023163226E1
6.505218917E0,9.549541626E0,1.225651245E0,2.861748962E0,1.004418107E1
6.515265917E0,9.393416290E0,1.233884125E0,2.827170868E0,9.886942639E0
6.525313917E0,9.246122589E0,1.221160583E0,2.794089661E0,9.735961850E0
6.535360917E0,9.121880951E0,1.178798676E0,2.774031372E0,9.606952090E0
6.545407917E0,9.055718536E0,1.086590424E0,2.733166351E0,9.521392506E0
6.555455917E0,9.010811920E0,9.897418213E-1,2.702929230E0,9.459394629E0
6.565502917E0,8.962462463E0,8.668473816E-1,2.693199463E0,9.398429717E0
6.575550917E0,8.972192230E0,7.345225525E-1,2.687660980E0,9.394853822E0
6.585597917E0,9.001531219E0,5.861810303E-1,2.660866699E0,9.404859600E0
6.595644917E0,9.026678925E0,4.330494690E-1,2.664908295E0,9.421793909E0
6.605692917E0,9.011410675E0,2.658471680E-1,2.655328217E0,9.398242655E0
6.615739917E0,8.960067444E0,1.221459961E-1,2.649190979E0,9.344299925E0
6.625787917E0,8.867260437E0,-2.395019531E-2,2.640359344E0,9.252047273E0
6.635834917E0,8.771759033E0,-1.507365417E-1,2.614762573E0,9.154423049E0
6.645881917E0,8.663384399E0,-2.685415649E-1,2.605182495E0,9.050597751E0
6.655929917E0,8.587043152E0,-3.873944092E-1,2.620301056E0,8.986287451E0
6.665976917E0,8.533304901E0,-4.698728943E-1,2.604733429E0,8.934355562E0
6.676024917E0,8.459807739E0,-5.589376831E-1,2.612517242E0,8.871640472E0
6.686071917E0,8.371940460E0,-6.221063232E-1,2.614463196E0,8.792714095E0
6.696118917E0,8.274044037E0,-6.659651184E-1,2.591111755E0,8.695813613E0
6.706166917E0,8.198151855E0,-7.068301392E-1,2.597847748E0,8.628911612E0
6.716213917E0,8.123307495E0,-7.412585449E-1,2.585722961E0,8.557076143E0
6.726261917E0,8.069419556E0,-7.533833313E-1,2.560425568E0,8.499346886E0
6.736308917E0,7.976762238E0,-8.056246948E-1,2.332449646E0,8.349735822E0
6.746355917E0,7.878566437E0,-8.403524780E-1,2.070644073E0,8.189357012E0
6.756403917E0,7.866591339E0,-7.773335266E-1,2.262844391E0,8.222406670E0
6.766450917E0,7.897127838E0,-7.418572998E-1,2.394420776E0,8.285422814E0
6.776497917E0,7.920030212E0,-6.969506836E-1,2.463576965E0,8.323570765E0
6.786545917E0,7.929460602E0,-6.584806824E-1,2.457290039E0,8.327557660E0
6.796592917E0,7.917485504E0,-6.200106812E-1,2.475701752E0,8.318659094E0
6.806640917E0,7.893535309E0,-5.478607178E-1,2.448308716E0,8.282648526E0
6.816687917E0,7.933502197E0,-4.748126221E-1,2.444267120E0,8.315067402E0
6.826734917E0,7.984246674E0,-3.784130859E-1,2.438279572E0,8.356829463E0
6.836782917E0,8.025411072E0,-2.966830444E-1,2.432142334E0,8.391100049E0
6.846829917E0,8.049211578E0,-1.830693054E-1,2.399959259E0,8.401376426E0
6.856877917E0,8.052055664E0,-5.313949585E-2,2.405647430E0,8.403901700E0
6.866924917E0,8.066874847E0,6.541397095E-2,2.396366730E0,8.415540523E0
6.876971917E0,8.082143097E0,1.999841309E-1,2.382445679E0,8.428349667E0
6.887019917E0,8.083789673E0,3.282673645E-1,2.387086029E0,8.435259015E0
6.897066917E0,8.077353058E0,4.778063965E-1,2.386786652E0,8.436153264E0
6.907113917E0,8.089477844E0,6.152206421E-1,2.401605835E0,8.460842678E0
6.917161917E0,8.134534149E0,7.426057434E-1,2.417472839E0,8.518584627E0
6.927208917E0,8.194110260E0,8.457412720E-1,2.454895020E0,8.595651855E0
6.937256917E0,8.253087616E0,9.541159058E-1,2.460134125E0,8.664643805E0
6.947303917E0,8.324489136E0,1.039438477E0,2.481689301E0,8.748504644E0
6.957350917E0,8.404273224E0,1.096170502E0,2.508034515E0,8.838757567E0
6.967398917E0,8.515791321E0,1.130449219E0,2.528242493E0,8.954810292E0
6.977445917E0,8.634494476E0,1.141077118E0,2.574945374E0,9.082229656E0
6.987492917E0,8.831335144E0,1.113833771E0,2.612816620E0,9.276848430E0
6.997540917E0,9.073980560E0,1.063837738E0,2.669398956E0,9.518117709E0
7.007587917E0,9.359886017E0,9.930349731E-1,2.749781799E0,9.805859710E0
7.017635917E0,9.721983032E0,8.937913513E-1,2.831511841E0,1.016529765E1
7.027682917E0,1.005773483E1,7.450007629E-1,2.939287720E0,1.050487831E1
7.037729917E0,1.027777725E1,5.776487732E-1,3.007096710E0,1.072422557E1
7.047777917E0,1.048090485E1,3.604504395E-1,3.056793365E0,1.092351942E1
7.057824917E0,1.103011276E1,1.419049072E-1,3.227288818E0,1.149342933E1
7.067871917E0,1.160042679E1,-8.023315430E-2,3.421734467E0,1.209481731E1
7.077919917E0,1.217163895E1,-3.034190369E-1,3.633094940E0,1.270591345E1
7.087966917E0,1.260558655E1,-5.460644531E-1,3.793112183E0,1.317523050E1
7.098014917E0,1.285002823E1,-7.932005310E-1,3.910767517E0,1.345535191E1
7.108061917E0,1.298100586E1,-1.018482056E0,3.992048492E0,1.361911414E1
7.118108917E0,1.310854065E1,-1.191372528E0,4.065545654E0,1.377613400E1
7.128156917E0,1.334430038E1,-1.356479187E0,4.172423401E0,1.404704615E1
7.138203917E0,1.355476273E1,-1.504221954E0,4.247567139E0,1.428412065E1
7.148251917E0,1.381342484E1,-1.627715149E0,4.336182861E0,1.456923622E1
7.158298917E0,1.397718430E1,-1.721569977E0,4.408482513E0,1.475670024E1
7.168345917E0,1.409214523E1,-1.773511963E0,4.451742554E0,1.488462004E1
7.178393917E0,1.405187897E1,-1.789079590E0,4.426594849E0,1.484085073E1
7.188440917E0,1.397059799E1,-1.769021301E0,4.381837921E0,1.474813711E1
7.198487917E0,1.390473495E1,-1.723066864E0,4.342619476E0,1.466863857E1
7.208535875E0,1.389350830E1,-1.687890015E0,4.324656830E0,1.464859045E1
7.218582875E0,1.383857254E1,-1.610201569E0,4.283492432E0,1.457556676E1
7.228629875E0,1.375998596E1,-1.523382111E0,4.245471497E0,1.448039830E1
7.238677875E0,1.362152390E1,-1.402583313E0,4.205654297E0,1.432482744E1
7.248724875E0,1.350461700E1,-1.255888367E0,4.168681183E0,1.418907463E1
7.258772875E0,1.333696564E1,-1.103654938E0,4.128714294E0,1.400496299E1
7.268819875E0,1.315629135E1,-9.383985901E-1,4.067341919E0,1.380260353E1
7.278866875E0,1.298744247E1,-7.614665222E-1,4.023932190E0,1.361783843E1
7.288914875E0,1.278611115E1,-5.770500183E-1,3.984114990E0,1.340487960E1
7.298961875E0,1.253478378E1,-3.878434753E-1,3.907174988E0,1.313534329E1
7.309008875E0,1.226205093E1,-2.016307068E-1,3.813170471E0,1.284285082E1
7.319056875E0,1.198273178E1,-3.382965088E-2,3.732338562E0,1.255059188E1
7.329103875E0,1.171523804E1,1.252894592E-1,3.629053345E0,1.226509388E1
7.339151875E0,1.139385635E1,2.673440552E-1,3.518732758E0,1.192782108E1
7.349198875E0,1.103580093E1,3.879931641E-1,3.376678162E0,1.154735452E1
7.359245875E0,1.067939209E1,4.959187317E-1,3.235222321E0,1.116969177E1
7.369293875E0,1.034244278E1,5.403762817E-1,3.110232239E0,1.081349498E1
7.379340875E0,1.005938141E1,5.822891235E-1,3.014281769E0,1.051741934E1
7.389387875E0,9.837393036E0,5.926176453E-1,2.919828186E0,1.027866207E1
7.399435875E0,9.666598206E0,5.812413025E-1,2.859353943E0,1.009736933E1
7.409482875E0,9.504036255E0,5.420228577E-1,2.804418182E0,9.923973763E0
7.419529875E0,9.397906952E0,4.836442566E-1,2.773282928E0,9.810487503E0
7.429577875E0,9.312135315E0,3.998185730E-1,2.742297363E0,9.715755958E0
7.439624875E0,9.215735779E0,2.951861572E-1,2.736908569E0,9.618086573E0
7.449672875E0,9.179361420E0,1.796264648E-1,2.741249542E0,9.581617337E0
7.459719875E0,9.117390289E0,7.649093628E-2,2.752176819E0,9.524029284E0
7.469766875E0,9.113498383E0,-6.032455444E-2,2.778072968E0,9.527705980E0
7.479814875E0,9.103618927E0,-1.863624573E-1,2.784210205E0,9.521682362E0
7.489861875E0,9.070238342E0,-3.252735901E-1,2.790497131E0,9.495362064E0
7.499908875E0,9.010811920E0,-4.544549561E-1,2.777474213E0,9.440107191E0
7.509956875E0,8.933572540E0,-5.626799011E-1,2.768642578E0,9.369669617E0
7.520003875E0,8.849297791E0,-6.848258972E-1,2.753374329E0,9.293015016E0
7.530050875E0,8.802145844E0,-7.768844604E-1,2.730921021E0,9.248743187E0
7.540098875E0,8.749904480E0,-8.580157471E-1,2.726729736E0,9.205002688E0
7.550145875E0,8.711135101E0,-9.677375793E-1,2.710713043E0,9.174331364E0
7.560193875E0,8.654702454E0,-1.023421783E0,2.680326233E0,9.117862437E0
7.570240875E0,8.588989105E0,-1.091380463E0,2.649340668E0,9.054327757E0
7.580287875E0,8.510402527E0,-1.151555328E0,2.628533936E0,8.981214923E0
7.590335875E0,8.443641357E0,-1.167422333E0,2.612966309E0,8.915466741E0
7.600382875E0,8.353079681E0,-1.210981750E0,2.598147125E0,8.831239180E0
7.610429875E0,8.283624115E0,-1.250499573E0,2.554887085E0,8.758403147E0
7.620477875E0,8.215964813E0,-1.263073425E0,2.519261169E0,8.685856845E0
7.630524875E0,8.156239014E0,-1.281485138E0,2.506837006E0,8.628480213E0
7.640571875E0,8.159382477E0,-1.311871948E0,2.525847473E0,8.641552862E0
7.650619875E0,8.157885590E0,-1.326840820E0,2.525398407E0,8.642293733E0
7.660666875E0,8.191415863E0,-1.336720276E0,2.532433777E0,8.677518987E0
7.670713875E0,8.274493103E0,-1.372346191E0,2.573298798E0,8.773393692E0
7.680761875E0,8.417894897E0,-1.385818176E0,2.610122223E0,8.921557293E0
7.690808875E0,8.579708405E0,-1.410666504E0,2.696342926E0,9.103386264E0
7.700855875E0,8.697812805E0,-1.419348450E0,2.721041565E0,9.223370578E0
7.710903875E0,8.763825531E0,-1.412013702E0,2.734363861E0,9.288442623E0
7.720950875E0,8.813671875E0,-1.408720551E0,2.759361877E0,9.342343575E0
7.730998875E0,8.906927948E0,-1.383872223E0,2.793341217E0,9.436695553E0
7.741045875E0,9.038055267E0,-1.371597748E0,2.834954681E0,9.571033980E0
7.751092875E0,9.180858307E0,-1.336271210E0,2.869233398E0,9.711142069E0
7.761140875E0,9.369017029E0,-1.302740936E0,2.910547485E0,9.896812653E0
7.771187875E0,9.578730927E0,-1.244362335E0,2.981350250E0,1.010885617E1
7.781234875E0,9.752519531E0,-1.163680115E0,3.021466827E0,1.027594523E1
7.791282875E0,9.859097900E0,-1.080303497E0,3.045267334E0,1.037509133E1
7.801329875E0,9.901459808E0,-9.743238831E-1,3.044069824E0,1.040454586E1
7.811376875E0,9.921667786E0,-8.481362915E-1,3.049907684E0,1.041444976E1
7.821424875E0,9.932145996E0,-6.957531738E-1,3.037782898E0,1.040959757E1
7.831471875E0,9.929750977E0,-5.510041809E-1,3.032094727E0,1.039697833E1
7.841518875E0,9.983788605E0,-4.041595459E-1,3.027753754E0,1.044062607E1
7.851566875E0,1.004905289E1,-2.338137817E-1,3.040477295E0,1.050155393E1
7.861613875E0,1.014066238E1,-1.028361511E-1,3.071462860E0,1.059610744E1
7.871660875E0,1.023810974E1,5.523513794E-2,3.090772705E0,1.069461630E1
7.881708875E0,1.031534912E1,1.932481384E-1,3.139720917E0,1.078432287E1
7.891755875E0,1.041713745E1,3.236270142E-1,3.160827026E0,1.089092809E1
7.901803875E0,1.050754944E1,4.272116089E-1,3.176394653E0,1.098547168E1
7.911850875E0,1.047626450E1,4.899311829E-1,3.171005859E0,1.095661574E1
7.921897875E0,1.053239777E1,5.357359314E-1,3.195255432E0,1.101944068E1
7.931945875E0,1.076740906E1,5.978567505E-1,3.273542633E0,1.126989849E1
7.941992875E0,1.104912323E1,5.972579956E-1,3.369044037E0,1.156677565E1
7.952039875E0,1.133787277E1,5.851332092E-1,3.467389526E0,1.187065836E1
7.962087875E0,1.155537048E1,5.189707947E-1,3.544628906E0,1.209794659E1
7.972134875E0,1.170101761E1,4.421804810E-1,3.597768402E0,1.224962343E1
7.982181875E0,1.189815765E1,3.341052246E-1,3.670966187E0,1.245607380E1
7.992229875E0,1.216669922E1,1.896556091E-1,3.757186890E0,1.273503013E1
8.002276875E0,1.246682510E1,5.613327026E-2,3.852837982E0,1.304872559E1
8.012323875E0,1.274270142E1,-1.002914429E-1,3.951632538E0,1.334173517E1
8.022371875E0,1.300360886E1,-2.567161560E-1,4.046235809E0,1.362100476E1
8.032418875E0,1.321002960E1,-4.385879517E-1,4.124672699E0,1.384594404E1
8.042465875E0,1.333157684E1,-5.996530151E-1,4.163591766E0,1.397948573E1
8.052513875E0,1.337423813E1,-7.448510742E-1,4.183500366E0,1.403305825E1
8.062560875E0,1.340163116E1,-8.842112732E-1,4.211492157E0,1.407558928E1
8.072607875E0,1.349982697E1,-1.030906219E0,4.237837372E0,1.418687285E1
8.082655875E0,1.366792740E1,-1.145567780E0,4.314028931E0,1.437829651E1
8.092702875E0,1.374905869E1,-1.262025604E0,4.330794067E0,1.447014515E1
8.102749875E0,1.366807709E1,-1.326391754E0,4.322261810E0,1.439644378E1
8.112797875E0,1.347527802E1,-1.372645569E0,4.267775116E0,1.420144985E1
8.122844875E0,1.328981369E1,-1.405128021E0,4.201313324E0,1.400873179E1
8.132891875E0,1.312829956E1,-1.413061523E0,4.128714294E0,1.383456808E1
8.142939875E0,1.304836578E1,-1.413510590E0,4.107757874E0,1.375251019E1
8.152986875E0,1.301633240E1,-1.401685181E0,4.086053009E0,1.371442524E1
8.163033875E0,1.292891418E1,-1.344653778E0,4.040397949E0,1.361211708E1
8.173081875E0,1.280886383E1,-1.272653503E0,4.004772034E0,1.348053555E1
8.183128875E0,1.258747421E1,-1.170266418E0,3.910019073E0,1.323262180E1
8.193175875E0,1.229947311E1,-1.045875092E0,3.826492767E0,1.292334866E1
8.203223875E0,1.203362595E1,-9.142987061E-1,3.713627472E0,1.262676223E1
8.213270250E0,1.174966644E1,-7.740403748E-1,3.628155212E0,1.232141673E1
8.223317250E0,1.147902924E1,-6.182144165E-1,3.523672485E0,1.202358387E1
8.233365250E0,1.115794693E1,-4.415817261E-1,3.423381042E0,1.167965376E1
8.243412250E0,1.081560883E1,-2.725831604E-1,3.304528198E0,1.131245342E1
8.253459250E0,1.044722488E1,-1.139131165E-1,3.191812592E0,1.092452066E1
8.263507250E0,1.008692413E1,4.296066284E-2,3.077899475E0,1.054615329E1
8.273554250E0,9.756411438E0,2.023791504E-1,2.954855347E0,1.019606255E1
8.283601250E0,9.462273102E0,3.465293884E-1,2.844235382E0,9.886575230E0
8.293649250E0,9.229806519E0,4.703219604E-1,2.777623901E0,9.650167131E0
8.303696250E0,8.988657990E0,5.911207581E-1,2.703527985E0,9.405023114E0
8.313743250E0,8.732540588E0,6.692582703E-1,2.615061951E0,9.140225422E0
8.323791250E0,8.463250580E0,7.448510742E-1,2.528691559E0,8.864293232E0
8.333838250E0,8.217461700E0,7.798782349E-1,2.447111206E0,8.609485473E0
8.343885250E0,7.982001343E0,7.997868347E-1,2.368524628E0,8.364323842E0
8.353933250E0,7.750432892E0,8.280780029E-1,2.293829956E0,8.125058711E0
8.363980250E0,7.584128723E0,7.994874573E-1,2.243983612E0,7.949443448E0
8.374027250E0,7.475155334E0,7.834707642E-1,2.222578125E0,7.837833070E0
8.384075250E0,7.443121948E0,7.592211914E-1,2.227517853E0,7.806299824E0
8.394122250E0,7.459587708E0,7.138655090E-1,2.222278748E0,7.816237942E0
8.404169250E0,7.476352844E0,6.662644958E-1,2.229314117E0,7.830044806E0
8.414217250E0,7.481142883E0,5.990542603E-1,2.241887970E0,7.832778978E0
8.424264250E0,7.443271637E0,5.200186157E-1,2.243983612E0,7.791545063E0
8.434311250E0,7.426805878E0,4.581971741E-1,2.245480499E0,7.772359543E0
8.444359250E0,7.391329651E0,3.623963928E-1,2.243235168E0,7.732734909E0
8.454406250E0,7.382498016E0,2.842588806E-1,2.251468048E0,7.723418184E0
8.464453250E0,7.394922180E0,4.490661621E-4,2.386187897E0,7.770377528E0
8.474501250E0,7.440577240E0,-2.080673218E-1,2.690355377E0,7.914764288E0
8.484548250E0,7.672445068E0,-1.270857239E-1,2.824326782E0,8.176758886E0
8.494595250E0,7.663463745E0,-9.355545044E-2,2.487377472E0,8.057572580E0
8.504643250E0,7.519612885E0,-9.924362183E-2,2.281256104E0,7.858661250E0
8.514690250E0,7.619155884E0,-1.591191101E-1,2.305655365E0,7.961965959E0
8.524737250E0,7.749834137E0,-2.026785278E-1,2.350112915E0,8.100866525E0
8.534785250E0,7.875872040E0,-2.636018372E-1,2.387385406E0,8.233981746E0
8.544832250E0,7.968379669E0,-3.167413330E-1,2.411784668E0,8.331392735E0
8.554879250E0,8.046517181E0,-3.406915283E-1,2.443818054E0,8.416338643E0
8.564927250E0,8.115224304E0,-3.818559265E-1,2.477198639E0,8.493479414E0
8.574974250E0,8.232280884E0,-4.089495850E-1,2.519410858E0,8.618881562E0
8.585021250E0,8.369844818E0,-4.348457336E-1,2.586770782E0,8.771247128E0
8.595069250E0,8.512797546E0,-4.417314148E-1,2.635120239E0,8.922259096E0
8.605116250E0,8.646619263E0,-4.423301697E-1,2.702330475E0,9.069855051E0
8.615163250E0,8.750503235E0,-4.197271729E-1,2.735860748E0,9.177821735E0
8.625211250E0,8.853040009E0,-4.195774841E-1,2.793640594E0,9.292835435E0
8.635258250E0,8.989855499E0,-3.785627747E-1,2.815794525E0,9.428123381E0
8.645305250E0,9.123527527E0,-3.427871704E-1,2.864443359E0,9.568766553E0
8.655353250E0,9.256002045E0,-3.031196594E-1,2.884351959E0,9.699739254E0
8.665400250E0,9.393416290E0,-2.490820312E-1,2.921025696E0,9.840259274E0
8.675447250E0,9.556876373E0,-1.893562317E-1,2.960543518E0,1.000672572E1
8.685495250E0,9.699978790E0,-1.219963074E-1,2.985092468E0,1.014964279E1
8.695542250E0,9.830207977E0,-4.924758911E-2,2.997217255E0,1.027709713E1
8.705589250E0,9.958042145E0,1.227447510E-2,3.025209045E0,1.040743214E1
8.715636250E0,1.004126907E1,9.684860229E-2,3.020868073E0,1.048628190E1
8.725684250E0,1.011686188E1,1.886077881E-1,3.040327606E0,1.056551272E1
8.735731250E0,1.018467087E1,2.619552612E-1,3.030747528E0,1.062927899E1
8.745778250E0,1.024499542E1,3.278182983E-1,3.052302704E0,1.069504314E1
8.755826250E0,1.034558624E1,4.087998962E-1,3.096760254E0,1.080685875E1
8.765873250E0,1.047551605E1,4.635859680E-1,3.143014069E0,1.094668379E1
8.775920250E0,1.050739975E1,5.031037903E-1,3.170257416E0,1.098676909E1
8.785968250E0,1.046638504E1,5.222639465E-1,3.173101501E0,1.094927160E1
8.796015250E0,1.081665665E1,5.080435181E-1,3.274590454E0,1.131287372E1
8.806062250E0,1.114776810E1,5.140310669E-1,3.395838318E0,1.166484802E1
8.816110250E0,1.143891266E1,5.113366699E-1,3.501069489E0,1.197362416E1
8.826157250E0,1.160072617E1,4.656816101E-1,3.546125793E0,1.213955168E1
8.836204250E0,1.159878021E1,3.695814514E-1,3.571123810E0,1.214171397E1
8.846252250E0,1.161225220E1,2.674937439E-1,3.549269257E0,1.214550395E1
8.856299250E0,1.171299271E1,1.770817566E-1,3.579057312E0,1.224888596E1
8.866346250E0,1.198183365E1,8.741821289E-2,3.661086731E0,1.252898781E1
8.876394250E0,1.226549377E1,-4.116439819E-2,3.727398834E0,1.281942019E1
8.886441250E0,1.254825577E1,-1.874102783E-1,3.826642456E0,1.312010053E1
8.896488250E0,1.275168274E1,-3.153941345E-1,3.896846466E0,1.333755219E1
8.906536250E0,1.292202850E1,-4.638853455E-1,3.958218842E0,1.352262943E1
8.916583250E0,1.296483948E1,-5.830375671E-1,3.974085846E0,1.357277988E1
8.926630250E0,1.301678146E1,-7.197033691E-1,4.002377014E0,1.363721359E1
8.936677250E0,1.309446991E1,-8.318202209E-1,4.036955109E0,1.372785758E1
8.946725250E0,1.326751007E1,-9.351054382E-1,4.111051025E0,1.392127818E1
8.956772250E0,1.335926926E1,-1.015039215E0,4.169130249E0,1.403146559E1
8.966819250E0,1.331406326E1,-1.100661163E0,4.166136475E0,1.399401403E1
8.976867250E0,1.321586746E1,-1.144370270E0,4.148024139E0,1.389873521E1
8.986914250E0,1.312829956E1,-1.169967041E0,4.142934723E0,1.381611307E1
8.996961250E0,1.305644897E1,-1.169967041E0,4.148323517E0,1.374948256E1
9.007009250E0,1.298355057E1,-1.172511749E0,4.100722504E0,1.366613677E1
9.017056250E0,1.291649002E1,-1.167572021E0,4.083657990E0,1.359688205E1
9.027103250E0,1.279628998E1,-1.143621826E0,4.026027832E0,1.346335056E1
9.037151250E0,1.260648468E1,-1.076112213E0,3.956422577E0,1.325649852E1
9.047198250E0,1.236473740E1,-1.040935364E0,3.850143585E0,1.299207000E1
9.057245250E0,1.214349747E1,-9.857002258E-1,3.773802338E0,1.275451762E1
9.067292250E0,1.196940948E1,-9.205856323E-1,3.706592102E0,1.256395902E1
9.077340250E0,1.183364182E1,-8.422984314E-1,3.653302917E0,1.241334634E1
9.087387250E0,1.164907562E1,-7.590715027E-1,3.593876495E0,1.221446277E1
9.097434250E0,1.138966507E1,-6.743476868E-1,3.513194275E0,1.193824733E1
9.107482250E0,1.114013397E1,-5.950126648E-1,3.425776062E0,1.167015709E1
9.117529250E0,1.094553864E1,-5.257067871E-1,3.370690613E0,1.146484796E1
9.127576250E0,1.074016571E1,-4.510121155E-1,3.318598938E0,1.125022979E1
9.137624250E0,1.052072205E1,-3.640429688E-1,3.259172516E0,1.101999660E1
9.147671250E0,1.030546967E1,-3.077600098E-1,3.200195160E0,1.079530779E1
9.157718250E0,1.009096573E1,-2.341131592E-1,3.128643951E0,1.056744109E1
9.167766250E0,9.851763153E0,-1.719923401E-1,3.067421265E0,1.031968468E1
9.177813250E0,9.583071899E0,-1.317260742E-1,2.985242157E0,1.003814174E1
9.187860250E0,9.344617767E0,-8.457412720E-2,2.909948730E0,9.787585791E0
9.197907250E0,9.092991028E0,-5.852828979E-2,2.826572113E0,9.522364271E0
9.207955250E0,8.896150360E0,-3.502716064E-2,2.747985535E0,9.310968942E0
9.218002500E0,8.746012573E0,-2.125579834E-2,2.699636078E0,9.153208328E0
9.228049500E0,8.591084747E0,-6.885681152E-3,2.617906036E0,8.981103304E0
9.238097500E0,8.464747467E0,-3.248245239E-2,2.595003662E0,8.853646074E0
9.248144500E0,8.332272949E0,-5.942642212E-2,2.535427551E0,8.709689826E0
9.258191500E0,8.210126953E0,-7.259902954E-2,2.491119690E0,8.580042687E0
9.268239500E0,8.098159790E0,-9.639953613E-2,2.450104980E0,8.461235091E0
9.278286500E0,8.012537842E0,-1.263372803E-1,2.428849182E0,8.373531640E0
9.288333500E0,7.925868073E0,-1.583706665E-1,2.408042450E0,8.285115232E0
9.298380500E0,7.866890717E0,-2.095642090E-1,2.406695251E0,8.229463454E0
9.308428500E0,7.878117371E0,-2.544708252E-1,2.415676575E0,8.244087701E0
9.318475500E0,7.919730835E0,-3.073109436E-1,2.436483307E0,8.291744534E0
9.328522500E0,7.978558502E0,-3.513194275E-1,2.456840973E0,8.355650105E0
9.338570500E0,8.030650177E0,-4.076023865E-1,2.486179962E0,8.416565379E0
9.348617500E0,8.063432007E0,-4.610412598E-1,2.522254944E0,8.461280327E0
9.358664500E0,8.083190918E0,-5.110372925E-1,2.536475372E0,8.487216378E0
9.368712500E0,8.098908234E0,-5.586383057E-1,2.539469147E0,8.506073999E0
9.378759500E0,8.099057922E0,-6.047424316E-1,2.534679108E0,8.507940457E0
9.388806500E0,8.113428040E0,-6.578819275E-1,2.550546112E0,8.530287724E0
9.398853500E0,8.178542633E0,-6.959028625E-1,2.566263428E0,8.599915603E0
9.408901500E0,8.266260223E0,-7.563771057E-1,2.600392456E0,8.698574902E0
9.418948500E0,8.395591278E0,-8.059240723E-1,2.630479889E0,8.834867909E0
9.428995500E0,8.529113617E0,-8.560697937E-1,2.669249268E0,8.977946660E0
9.439043500E0,8.629105682E0,-8.949888611E-1,2.701582031E0,9.086309229E0
9.449090500E0,8.760233002E0,-9.484277344E-1,2.739602966E0,9.227492716E0
9.459137500E0,8.914262695E0,-1.005608826E0,2.768492889E0,9.388284262E0
9.469185500E0,9.075327759E0,-1.038091278E0,2.830314331E0,9.562943409E0
9.479232500E0,9.220376129E0,-1.077758789E0,2.852468262E0,9.711512506E0
9.489279500E0,9.351054382E0,-1.109043732E0,2.897374878E0,9.852257469E0
9.499326500E0,9.480235748E0,-1.144070892E0,2.944676514E0,9.992741757E0
9.509374500E0,9.619895325E0,-1.151405640E0,2.980751495E0,1.013671547E1
9.519421500E0,9.766141205E0,-1.160087585E0,3.029550018E0,1.029084499E1
9.529468500E0,9.949659576E0,-1.178050232E0,3.096311188E0,1.048669018E1
9.539516500E0,1.016625916E1,-1.177152100E0,3.154839478E0,1.070941289E1
9.549563500E0,1.035860916E1,-1.169667664E0,3.234024811E0,1.091456929E1
9.559610500E0,1.052715866E1,-1.163979492E0,3.287463684E0,1.108978517E1
9.569657500E0,1.065873505E1,-1.110989685E0,3.335813141E0,1.122366162E1
9.579705500E0,1.077818665E1,-1.069376221E0,3.363655243E0,1.134138658E1
9.589752500E0,1.086814957E1,-1.013841705E0,3.388204193E0,1.142910660E1
9.599799500E0,1.095481934E1,-9.216334534E-1,3.418740692E0,1.151283036E1
9.609847500E0,1.103610031E1,-8.439450073E-1,3.427123260E0,1.158675654E1
9.619894500E0,1.113833771E1,-7.679031372E-1,3.442092133E0,1.168333173E1
9.629941500E0,1.120494919E1,-6.414161682E-1,3.441942444E0,1.173921926E1
9.639988500E0,1.115630035E1,-5.303471375E-1,3.428919525E0,1.168339825E1
9.650036500E0,1.130389343E1,-4.228706360E-1,3.456462250E0,1.182810034E1
9.660083500E0,1.146600632E1,-3.061134338E-1,3.489842834E0,1.198924557E1
9.670130500E0,1.161015656E1,-1.914518738E-1,3.521277466E0,1.213391050E1
9.680178500E0,1.170730453E1,-7.274871826E-2,3.542533264E0,1.223175432E1
9.690225500E0,1.168649780E1,2.140548706E-2,3.546275482E0,1.221272938E1
9.700272500E0,1.165805695E1,1.184037781E-1,3.540437622E0,1.218437564E1
9.710320500E0,1.168410278E1,1.802252197E-1,3.543880463E0,1.221105351E1
9.720367500E0,1.179981216E1,2.399510193E-1,3.575614471E0,1.233199750E1
9.730414500E0,1.190863586E1,2.680924988E-1,3.625610504E0,1.245120610E1
9.740461500E0,1.197404984E1,2.909948730E-1,3.658691711E0,1.252392001E1
9.750509500E0,1.208092758E1,2.880010986E-1,3.698359222E0,1.263762702E1
9.760556500E0,1.218930222E1,2.631527710E-1,3.737877045E0,1.275225716E1
9.770603500E0,1.225666214E1,2.157014465E-1,3.767365723E0,1.282440402E1
9.780651500E0,1.228555206E1,1.564247131E-1,3.806883545E0,1.286279987E1
9.790698500E0,1.236862930E1,9.265731812E-2,3.818409576E0,1.294495376E1
9.800745500E0,1.250948639E1,1.197509766E-3,3.856580200E0,1.309047218E1
9.810792500E0,1.265857635E1,-1.071771240E-1,3.913461914E0,1.325014062E1
9.820840500E0,1.272563690E1,-1.953437805E-1,3.934717712E0,1.332148630E1
9.830887500E0,1.273506729E1,-2.981799316E-1,3.940555573E0,1.333412271E1
9.840934500E0,1.270078857E1,-4.026626587E-1,3.919599152E0,1.329794815E1
9.850982500E0,1.264405655E1,-4.965174866E-1,3.912713470E0,1.324492440E1
9.861029500E0,1.258268417E1,-5.815406799E-1,3.887865143E0,1.318247420E1
9.871076500E0,1.254630981E1,-6.616241455E-1,3.895948334E0,1.315393667E1
9.881123500E0,1.252265900E1,-7.379653931E-1,3.886218567E0,1.313256548E1
9.891171500E0,1.248179398E1,-7.789801025E-1,3.892655182E0,1.309789125E1
9.901218500E0,1.236009705E1,-8.280780029E-1,3.863316193E0,1.297624461E1
9.911265500E0,1.219723572E1,-8.657995605E-1,3.817960510E0,1.281011282E1
9.921312500E0,1.202329742E1,-8.686436462E-1,3.761228485E0,1.262778929E1
9.931360500E0,1.188303909E1,-8.768765259E-1,3.731739807E0,1.248604872E1
9.941407500E0,1.175251053E1,-8.598120117E-1,3.685635681E0,1.234684943E1
9.951454500E0,1.159324173E1,-8.343649292E-1,3.611090698E0,1.217125280E1
9.961502500E0,1.140583145E1,-7.978408813E-1,3.531755676E0,1.196673888E1
9.971549500E0,1.118548965E1,-7.508386230E-1,3.462898865E0,1.173331181E1
9.981596500E0,1.094299393E1,-6.867718506E-1,3.376678162E0,1.147269485E1
9.991643500E0,1.066577042E1,-6.084846497E-1,3.274889832E0,1.117380041E1
1.000169150E1,1.038345749E1,-5.309458923E-1,3.175047455E0,1.087101740E1
1.001173850E1,1.015847534E1,-4.324507141E-1,3.097059631E0,1.062889520E1
1.002178550E1,9.927206268E0,-3.302133179E-1,3.016676788E0,1.038069381E1
1.003183350E1,9.724677429E0,-2.288740540E-1,2.942580872E0,1.016270223E1
1.004188050E1,9.477391663E0,-1.173559570E-1,2.880759430E0,9.906235412E0
1.005192750E1,9.223220215E0,-2.739303589E-2,2.809806976E0,9.641761082E0
1.006197450E1,8.957672424E0,5.703140259E-2,2.710413666E0,9.358925691E0
1.007202250E1,8.669222260E0,1.609153748E-1,2.623145142E0,9.058818840E0
1.008206950E1,8.385262756E0,2.383044434E-1,2.525398407E0,8.760539802E0
1.009211650E1,8.143365784E0,3.118016052E-1,2.445314941E0,8.508301340E0
1.010216350E1,7.930658112E0,3.794609070E-1,2.387535095E0,8.290937974E0
1.011221150E1,7.753127289E0,4.531077576E-1,2.325414276E0,8.107024174E0
1.012225850E1,7.625891876E0,4.983137512E-1,2.292782135E0,7.978683690E0
1.013230550E1,7.525301056E0,5.394781494E-1,2.260449371E0,7.875964958E0
1.014235350E1,7.431446228E0,5.782475281E-1,2.218536530E0,7.777060343E0
1.015240050E1,7.307204590E0,6.069877625E-1,2.183359680E0,7.650538057E0
1.016244750E1,7.203619995E0,6.129753113E-1,2.142644348E0,7.540477741E0
1.017249450E1,7.150480499E0,6.191125488E-1,2.127076721E0,7.485795021E0
1.018254250E1,7.097640381E0,6.093827820E-1,2.116897888E0,7.431628558E0
1.019258950E1,7.078929291E0,5.902226257E-1,2.097588043E0,7.406718454E0
1.020263650E1,7.034920807E0,5.565426636E-1,2.083367615E0,7.358007279E0
1.021268304E1,7.008725281E0,5.257067871E-1,2.091750183E0,7.333076879E0
1.022273104E1,7.036717072E0,5.034031677E-1,2.105072479E0,7.362073895E0
1.023277804E1,7.113208008E0,4.501139832E-1,2.120041351E0,7.436054471E0
1.024282504E1,7.216493225E0,4.158352661E-1,2.154320068E0,7.542664542E0
1.025287304E1,7.338339844E0,3.697311401E-1,2.192191315E0,7.667700799E0
1.026292004E1,7.464826813E0,2.960842896E-1,2.244881744E0,7.800692232E0
1.027296704E1,7.578290863E0,2.433938599E-1,2.288291473E0,7.919975432E0
1.028301404E1,7.695048065E0,1.737886047E-1,2.335144043E0,8.043436138E0
1.029306204E1,7.792046356E0,1.089733887E-1,2.373314667E0,8.146194457E0
1.030310904E1,7.920479279E0,5.388793945E-2,2.410138092E0,8.279230733E0
1.031315604E1,8.082741852E0,7.484436035E-4,2.476749573E0,8.453697703E0
1.032320304E1,8.259075165E0,-6.301895142E-2,2.531984711E0,8.638705953E0
1.033325104E1,8.421637115E0,-1.273851013E-1,2.588267670E0,8.811318187E0
1.034329804E1,8.600664825E0,-1.707948303E-1,2.656825104E0,9.003295283E0
1.035334504E1,8.769962769E0,-2.192939758E-1,2.720293121E0,9.184788047E0
1.036339304E1,8.959768066E0,-2.743794250E-1,2.767744446E0,9.381531708E0
1.037344004E1,9.166637878E0,-3.162922668E-1,2.820584564E0,9.595988124E0
1.038348704E1,9.334738312E0,-3.522175598E-1,2.879412231E0,9.775091373E0
1.039353404E1,9.472751312E0,-3.821553040E-1,2.925067291E0,9.921445397E0
1.040358204E1,9.637558594E0,-4.020639038E-1,2.968177643E0,1.009228763E1
1.041362904E1,9.802365875E0,-4.053570557E-1,3.020568695E0,1.026520951E1
1.042367604E1,9.988578644E0,-4.138893127E-1,3.067421265E0,1.045715453E1
1.043372304E1,1.018332367E1,-4.168830872E-1,3.135529633E0,1.066327429E1
1.044377104E1,1.037702087E1,-4.104464722E-1,3.192710724E0,1.086482537E1
1.045381804E1,1.056502991E1,-3.872447205E-1,3.251239014E0,1.106075814E1
1.046386504E1,1.073956696E1,-3.764671326E-1,3.305426331E0,1.124303647E1
1.047391204E1,1.088850723E1,-3.381468201E-1,3.359763336E0,1.140008521E1
1.048396004E1,1.103610031E1,-2.989283752E-1,3.405418396E0,1.155342991E1
1.049400704E1,1.116453323E1,-2.639012146E-1,3.439697113E0,1.168537387E1
1.050405404E1,1.126647125E1,-2.020797729E-1,3.476520538E0,1.179238762E1
1.051410104E1,1.123937759E1,-1.544787598E-1,3.474424896E0,1.176516471E1
1.052414904E1,1.103280716E1,-9.086105347E-2,3.403622131E0,1.154624325E1
1.053419604E1,1.131287476E1,-5.867797852E-2,3.482807465E0,1.183699819E1
1.054424304E1,1.163515457E1,-1.062789917E-2,3.594175873E0,1.217764489E1
1.055429104E1,1.188199127E1,3.787124634E-2,3.668720856E0,1.243554034E1
1.056433804E1,1.198931808E1,8.622070312E-2,3.676205292E0,1.254056089E1
1.057438504E1,1.191177933E1,1.140628052E-1,3.641926575E0,1.245660974E1
1.058443204E1,1.184022812E1,1.363664246E-1,3.608845367E0,1.237874641E1
1.059448004E1,1.178574142E1,1.438508606E-1,3.588936768E0,1.232091154E1
1.060452704E1,1.189381668E1,1.552272034E-1,3.623065796E0,1.243437077E1
1.061457404E1,1.198422867E1,1.453477478E-1,3.640429688E0,1.252579702E1
1.062462104E1,1.210862000E1,1.070274353E-1,3.682192841E0,1.265656656E1
1.063466904E1,1.220097794E1,8.517288208E-2,3.716621246E0,1.275477912E1
1.064471604E1,1.228106140E1,4.400848389E-2,3.746858368E0,1.283999040E1
1.065476304E1,1.227627136E1,-1.826202393E-2,3.746858368E0,1.283534650E1
1.066481004E1,1.228510300E1,-8.726852417E-2,3.778891754E0,1.285345846E1
1.067485804E1,1.231324448E1,-1.492396545E-1,3.784579926E0,1.288259707E1
1.068490504E1,1.240799744E1,-2.230361938E-1,3.818409576E0,1.298415947E1
1.069495204E1,1.250604355E1,-2.969824219E-1,3.865411835E0,1.309315594E1
1.070499904E1,1.248329086E1,-4.007167053E-1,3.873495026E0,1.307658550E1
1.071504704E1,1.242521164E1,-4.658312988E-1,3.852837982E0,1.301719031E1
1.072509404E1,1.239332794E1,-5.337899780E-1,3.841910706E0,1.298613827E1
1.073514104E1,1.240021362E1,-6.147715759E-1,3.846401367E0,1.299761691E1
1.074518804E1,1.239946518E1,-6.936575317E-1,3.845353546E0,1.300056312E1
1.075523604E1,1.238734039E1,-7.530839539E-1,3.840563507E0,1.299089164E1
1.076528304E1,1.232836304E1,-7.866142273E-1,3.829037476E0,1.293324496E1
1.077533004E1,1.220980957E1,-8.396040344E-1,3.806434479E0,1.281691570E1
1.078537704E1,1.203272781E1,-8.614585876E-1,3.742667084E0,1.263076429E1
1.079542504E1,1.183633621E1,-8.740324402E-1,3.682492218E0,1.242672670E1
1.080547204E1,1.164787811E1,-8.870553589E-1,3.622017975E0,1.223024717E1
1.081551904E1,1.152872589E1,-8.846603394E-1,3.591331787E0,1.210751042E1
1.082556604E1,1.141541153E1,-8.806187439E-1,3.566483459E0,1.199195205E1
1.083561404E1,1.129012207E1,-8.882528687E-1,3.519780579E0,1.185937203E1
1.084566104E1,1.111693222E1,-8.649014282E-1,3.466192017E0,1.167684562E1
1.085570804E1,1.095077774E1,-8.343649292E-1,3.425326996E0,1.150428455E1
1.086575504E1,1.075363770E1,-7.920030212E-1,3.375330963E0,1.129871017E1
1.087580304E1,1.054467224E1,-7.613168335E-1,3.303330688E0,1.107617757E1
1.088585004E1,1.031654663E1,-7.137158203E-1,3.230731659E0,1.083411979E1
1.089589704E1,1.011551468E1,-6.800358582E-1,3.161874847E0,1.061995944E1
1.090594404E1,9.920170898E0,-6.432124329E-1,3.098556519E0,1.041271172E1
1.091599204E1,9.729018402E0,-6.026467896E-1,3.044518890E0,1.021205550E1
1.092603904E1,9.563013611E0,-5.592370605E-1,2.972518616E0,1.002994727E1
1.093608604E1,9.392667847E0,-5.161267090E-1,2.932402039E0,9.853302887E0
1.094613304E1,9.219777374E0,-4.695735168E-1,2.855462036E0,9.663252949E0
1.095618104E1,9.043743439E0,-4.323010254E-1,2.793041840E0,9.475086400E0
1.096622804E1,8.834328918E0,-3.909869385E-1,2.740650787E0,9.257937403E0
1.097627504E1,8.653954010E0,-3.679348755E-1,2.680176544E0,9.066953313E0
1.098632204E1,8.497828674E0,-3.219804382E-1,2.615211639E0,8.896971142E0
1.099637004E1,8.346643066E0,-3.158432007E-1,2.568808136E0,8.738706005E0
1.100641704E1,8.244555359E0,-2.887495422E-1,2.537972260E0,8.631186046E0
1.101646404E1,8.147706757E0,-2.664459229E-1,2.511627045E0,8.530204525E0
1.102651104E1,8.077053680E0,-2.576142883E-1,2.468965759E0,8.449908473E0
1.103655904E1,8.028704224E0,-2.276765442E-1,2.477947083E0,8.405483321E0
1.104660604E1,7.976911926E0,-2.305206299E-1,2.443518677E0,8.345959931E0
1.105665304E1,7.937843170E0,-2.354603577E-1,2.455344086E0,8.312250619E0
1.106670004E1,7.923772430E0,-2.462379456E-1,2.445015564E0,8.296077613E0
1.107674804E1,7.900271301E0,-2.442919922E-1,2.453398132E0,8.276057492E0
1.108679504E1,7.885751495E0,-2.442919922E-1,2.442171478E0,8.258871397E0
1.109684204E1,7.880662079E0,-2.480342102E-1,2.437082062E0,8.252619266E0
1.110688904E1,7.907007294E0,-2.818638611E-1,2.458337860E0,8.285145540E0
1.111693704E1,7.938741302E0,-2.971321106E-1,2.472408600E0,8.320138535E0
1.112698404E1,7.997718658E0,-3.303630066E-1,2.480342102E0,8.380020310E0
1.113703104E1,8.118966522E0,-3.616479492E-1,2.499352570E0,8.502656637E0
1.114707804E1,8.249794464E0,-3.914360046E-1,2.547552338E0,8.643052340E0
1.115712504E1,8.336464233E0,-4.258644104E-1,2.582579498E0,8.737717853E0
1.116717304E1,8.436605988E0,-4.528083801E-1,2.604733429E0,8.841153333E0
1.117722004E1,8.507408752E0,-4.900808716E-1,2.632126465E0,8.918759592E0
1.118726704E1,8.624465332E0,-5.345384216E-1,2.663411407E0,9.042173075E0
1.119731404E1,8.758586426E0,-5.716612244E-1,2.707419891E0,9.185301040E0
1.120736204E1,8.920848999E0,-6.004014587E-1,2.768043823E0,9.359705945E0
1.121740967E1,9.096433868E0,-6.509962463E-1,2.821333008E0,9.546141900E0
1.122745667E1,9.282047882E0,-6.866221619E-1,2.893632660E0,9.746844251E0
1.123750367E1,9.490713959E0,-7.318281555E-1,2.951562195E0,9.965989328E0
1.124755167E1,9.677675171E0,-7.729925537E-1,3.016976166E0,1.016646740E1
1.125759867E1,9.827064514E0,-8.081694031E-1,3.091521149E0,1.033352978E1
1.126764567E1,1.000459534E1,-8.434959412E-1,3.126398621E0,1.051559706E1
1.127769267E1,1.016730698E1,-8.801696777E-1,3.193459167E0,1.069331620E1
1.128774067E1,1.033046768E1,-8.946894836E-1,3.226690063E0,1.085958381E1
1.129778767E1,1.050949539E1,-9.178912354E-1,3.283122711E0,1.104857061E1
1.130783467E1,1.067894302E1,-9.448352051E-1,3.349734192E0,1.123179669E1
1.131788167E1,1.084659439E1,-9.502239990E-1,3.401526489E0,1.140709946E1
1.132792967E1,1.102023331E1,-9.246272278E-1,3.449277191E0,1.158438565E1
1.133797667E1,1.118578903E1,-9.419911194E-1,3.488495636E0,1.175494897E1
1.134802367E1,1.133682495E1,-9.141490173E-1,3.509751434E0,1.190284099E1
1.135807067E1,1.146211441E1,-8.861572266E-1,3.558100891E0,1.203434349E1
1.136811867E1,1.141496246E1,-8.499325562E-1,3.526815948E0,1.197757004E1
1.137816567E1,1.154010223E1,-8.033793640E-1,3.564088440E0,1.210463153E1
1.138821267E1,1.177316757E1,-7.253915405E-1,3.648961945E0,1.234700736E1
1.139825967E1,1.197090637E1,-6.572831726E-1,3.705993347E0,1.254866556E1
1.140830667E1,1.206595871E1,-6.080355835E-1,3.733835449E0,1.264510158E1
1.141835467E1,1.203197937E1,-5.448669434E-1,3.714824982E0,1.260417916E1
1.142840167E1,1.192734695E1,-4.487667847E-1,3.690126343E0,1.249319933E1
1.143844867E1,1.195653625E1,-3.607498169E-1,3.694467316E0,1.251950432E1
1.144849567E1,1.208197540E1,-2.912942505E-1,3.730242920E0,1.264807077E1
1.145854367E1,1.217882401E1,-2.386038208E-1,3.762126617E0,1.274889339E1
1.146859067E1,1.222403000E1,-1.639091492E-1,3.774550781E0,1.279456952E1
1.147863767E1,1.221504868E1,-8.187973022E-2,3.756438446E0,1.277986495E1
1.148868467E1,1.215652039E1,-4.790039063E-2,3.741469574E0,1.271935049E1
1.149873267E1,1.208526855E1,-1.945953369E-2,3.714675293E0,1.264329495E1
1.150877967E1,1.203587128E1,2.814147949E-2,3.694467316E0,1.259015798E1
1.151882667E1,1.202748871E1,4.999603271E-2,3.702101440E0,1.258445626E1
1.152887367E1,1.211520630E1,5.748046875E-2,3.724704437E0,1.267497340E1
1.153892067E1,1.220531891E1,4.071533203E-2,3.744613037E0,1.276689446E1
1.154896867E1,1.222088654E1,4.580474854E-2,3.759581909E0,1.278618872E1
1.155901567E1,1.214274902E1,1.242416382E-2,3.747008057E0,1.270773692E1
1.156906267E1,1.203901474E1,-1.886077881E-2,3.711681519E0,1.259820667E1
1.157910967E1,1.199545532E1,-5.688171387E-2,3.708837433E0,1.255586154E1
1.158915767E1,1.198707275E1,-1.046324158E-1,3.713028717E0,1.254940012E1
1.159920467E1,1.199785034E1,-1.511856079E-1,3.701652374E0,1.255681091E1
1.160925167E1,1.199605408E1,-2.080673218E-1,3.719465332E0,1.256117143E1
1.161929867E1,1.192974197E1,-2.460882568E-1,3.711980896E0,1.249632367E1
1.162934567E1,1.180385376E1,-2.900967407E-1,3.668271790E0,1.236411491E1
1.163939367E1,1.164248932E1,-3.362008667E-1,3.619323578E0,1.219672463E1
1.164944067E1,1.155492142E1,-3.701802063E-1,3.589685211E0,1.210533280E1
1.165948767E1,1.146346161E1,-4.128414917E-1,3.563040619E0,1.201152149E1
1.166953467E1,1.132679581E1,-4.382885742E-1,3.521726532E0,1.186974970E1
1.167958267E1,1.114402588E1,-4.474195862E-1,3.471281433E0,1.168072309E1
1.168962967E1,1.097368011E1,-4.622387695E-1,3.409310303E0,1.150037898E1
1.169967667E1,1.084060684E1,-4.619393921E-1,3.361858978E0,1.135932395E1
1.170972367E1,1.071172485E1,-4.569996643E-1,3.317251740E0,1.122292552E1
1.171977167E1,1.055065979E1,-4.540058899E-1,3.273842010E0,1.105624642E1
1.172981867E1,1.037327866E1,-4.252656555E-1,3.212319946E0,1.086760141E1
1.173986567E1,1.016850449E1,-3.969744873E-1,3.138373718E0,1.064920006E1
1.174991267E1,9.947114868E0,-3.683839417E-1,3.072061615E0,1.041721477E1
1.175995967E1,9.722731476E0,-3.294648743E-1,3.005599823E0,1.018202754E1
1.177000767E1,9.450447693E0,-2.869532776E-1,2.919229431E0,9.895211178E0
1.178005467E1,9.230405273E0,-2.432441711E-1,2.849025421E0,9.663151406E0
1.179010167E1,9.086105347E0,-1.950444031E-1,2.814597015E0,9.514058495E0
1.180014867E1,8.998836823E0,-1.383123779E-1,2.779270477E0,9.419264242E0
1.181019667E1,8.890761566E0,-8.023315430E-2,2.742297363E0,9.304422250E0
1.182024367E1,8.721313934E0,-2.350112915E-2,2.678679657E0,9.123441990E0
1.183029067E1,8.523575134E0,1.466949463E-2,2.609523468E0,8.914099001E0
1.184033767E1,8.271798706E0,7.439529419E-2,2.545456696E0,8.654914112E0
1.185038467E1,8.056696014E0,1.272354126E-1,2.468367004E0,8.427299401E0
1.186043267E1,7.842790833E0,1.673519897E-1,2.393672333E0,8.201648735E0
1.187047967E1,7.692952423E0,2.186952209E-1,2.335892487E0,8.042744450E0
1.188052667E1,7.584577789E0,2.559677124E-1,2.299967194E0,7.929765999E0
1.189057367E1,7.544461212E0,3.198847961E-1,2.274220734E0,7.886272961E0
1.190062167E1,7.528145142E0,3.451821899E-1,2.257455597E0,7.866907003E0
1.191066867E1,7.482639771E0,3.882925415E-1,2.259551239E0,7.825997753E0
1.192071567E1,7.439978485E0,4.090992737E-1,2.230361938E0,7.777863232E0
1.193076267E1,7.323221283E0,4.306544495E-1,2.194885712E0,7.657189857E0
1.194080967E1,7.218439178E0,4.339476013E-1,2.173779602E0,7.551125244E0
1.195085767E1,7.182064819E0,4.382885742E-1,2.149080963E0,7.509507369E0
1.196090467E1,7.190297699E0,4.393363953E-1,2.156864777E0,7.519671744E0
1.197095167E1,7.261998596E0,4.403842163E-1,2.181264038E0,7.595292929E0
1.198099867E1,7.341183929E0,4.273612976E-1,2.219734039E0,7.681330508E0
1.199104567E1,7.413184204E0,4.224215698E-1,2.242187347E0,7.756361526E0
1.200109367E1,7.496111755E0,4.085005188E-1,2.261646881E0,7.840510872E0
1.201114067E1,7.569159851E0,3.752696228E-1,2.291734314E0,7.917389362E0
1.202118767E1,7.655380554E0,3.290158081E-1,2.322270813E0,8.006625042E0
1.203123467E1,7.737559662E0,3.052153015E-1,2.359543304E0,8.095086813E0
1.204128267E1,7.869734802E0,2.692900085E-1,2.373763733E0,8.224353909E0
1.205132967E1,8.030799866E0,2.242337036E-1,2.431244202E0,8.393746220E0
1.206137667E1,8.226592712E0,1.752854919E-1,2.504891052E0,8.601280826E0
1.207142367E1,8.426726532E0,1.357676697E-1,2.569855957E0,8.810920074E0
1.208147067E1,8.611592102E0,7.798782349E-2,2.623294830E0,9.002626084E0
1.209151867E1,8.780890045E0,1.990859985E-2,2.687211914E0,9.182893564E0
1.210156567E1,8.929231567E0,-2.993774414E-2,2.719394989E0,9.334194221E0
1.211161267E1,9.106013947E0,-7.364685059E-2,2.777923279E0,9.520597229E0
1.212165967E1,9.301357727E0,-1.353186035E-1,2.855312347E0,9.730692436E0
1.213170667E1,9.522148590E0,-1.751358032E-1,2.931354218E0,9.964678814E0
1.214175467E1,9.738149414E0,-2.118095398E-1,2.997366943E0,1.019120336E1
1.215180167E1,9.922565918E0,-2.832110596E-1,3.062631226E0,1.038832195E1
1.216184867E1,1.010473709E1,-3.073109436E-1,3.128793640E0,1.058250922E1
1.217189567E1,1.028915359E1,-3.270698547E-1,3.168161774E0,1.077083587E1
1.218194267E1,1.046758255E1,-3.668870544E-1,3.245401154E0,1.096528701E1
1.219199067E1,1.069286407E1,-3.936813354E-1,3.307521973E0,1.119964413E1
1.220203767E1,1.090617050E1,-4.090992737E-1,3.383264465E0,1.142621528E1
1.221208467E1,1.109552673E1,-4.334985352E-1,3.441643066E0,1.162512544E1
1.222213188E1,1.124431732E1,-4.228706360E-1,3.485801239E0,1.177982605E1
1.223217988E1,1.136062546E1,-4.055067444E-1,3.528163147E0,1.190278042E1
1.224222688E1,1.141870468E1,-4.005670166E-1,3.542084198E0,1.196217501E1
1.225227388E1,1.119462067E1,-3.626957703E-1,3.459456024E0,1.172258146E1
1.226232088E1,1.135388947E1,-3.682342529E-1,3.514691162E0,1.189115034E1
1.227236788E1,1.173035660E1,-3.531156921E-1,3.627706146E0,1.228357474E1
1.228241588E1,1.202599182E1,-3.243754578E-1,3.710034943E0,1.258944232E1
1.229246288E1,1.221983871E1,-2.820135498E-1,3.775448914E0,1.279288882E1
1.230250988E1,1.214783844E1,-2.534230042E-1,3.742667084E0,1.271384123E1
1.231255688E1,1.203167999E1,-2.170486450E-1,3.701203308E0,1.258996980E1
1.232260387E1,1.194171707E1,-1.824705505E-1,3.669169922E0,1.249402697E1
1.233265188E1,1.203437439E1,-1.483415222E-1,3.702101440E0,1.259181191E1
1.234269887E1,1.215412537E1,-1.119671631E-1,3.760180664E0,1.272298152E1
1.235274588E1,1.227088257E1,-1.005908203E-1,3.778292999E0,1.283978876E1
1.236279288E1,1.227163101E1,-6.496490479E-2,3.782334595E0,1.284146421E1
1.237283988E1,1.224408829E1,-4.715194702E-2,3.766168213E0,1.281030618E1
1.238288788E1,1.215143097E1,-4.041595459E-2,3.746858368E0,1.271604717E1
1.239293488E1,1.201895645E1,-5.074447632E-2,3.709286499E0,1.257842182E1
1.240298188E1,1.197719330E1,-5.373825073E-2,3.695814514E0,1.253455592E1
1.241302888E1,1.206820404E1,-6.706054688E-2,3.706292725E0,1.262468422E1
1.242307588E1,1.217178864E1,-9.939331055E-2,3.734284515E0,1.273213252E1
1.243312388E1,1.216969299E1,-1.151106262E-1,3.728147278E0,1.272846260E1
1.244317088E1,1.205069046E1,-1.618135071E-1,3.707041168E0,1.260902369E1
1.245321788E1,1.192629913E1,-2.124082947E-1,3.667223969E0,1.247919308E1
1.246326488E1,1.188678131E1,-2.526745605E-1,3.662583618E0,1.244081722E1
1.247331188E1,1.184711380E1,-2.909948730E-1,3.655847626E0,1.240177428E1
1.248335988E1,1.180624878E1,-3.339555359E-1,3.631747742E0,1.235672401E1
1.249340688E1,1.174772049E1,-3.954776001E-1,3.632645874E0,1.230290434E1
1.250345388E1,1.168140839E1,-4.558021545E-1,3.620221710E0,1.223801711E1
1.251350088E1,1.158261383E1,-4.918771362E-1,3.593726807E0,1.213728794E1
1.252354788E1,1.146974854E1,-5.345384216E-1,3.566483459E0,1.202333843E1
1.253359588E1,1.136212234E1,-5.763015747E-1,3.538491669E0,1.191431370E1
1.254364288E1,1.124282043E1,-6.189628601E-1,3.505260773E0,1.179283594E1
1.255368987E1,1.114582214E1,-6.502478027E-1,3.488795013E0,1.169717334E1
1.256373688E1,1.100930603E1,-6.727011108E-1,3.439248047E0,1.155360434E1
1.257378388E1,1.085258194E1,-7.111711121E-1,3.382216644E0,1.138963075E1
1.258383188E1,1.069196594E1,-7.216493225E-1,3.338208160E0,1.122419472E1
1.259387888E1,1.054197784E1,-7.201524353E-1,3.276835785E0,1.106298193E1
1.260392588E1,1.037597305E1,-7.240443420E-1,3.233575745E0,1.089224812E1
1.261397288E1,1.021311172E1,-7.306306458E-1,3.169658661E0,1.071859171E1
1.262401988E1,1.005279510E1,-7.397616577E-1,3.124901733E0,1.055324346E1
1.263406788E1,9.914482727E0,-7.243437195E-1,3.076103210E0,1.040596235E1
1.264411488E1,9.749525757E0,-7.080276489E-1,3.035836945E0,1.023576385E1
1.265416188E1,9.586215363E0,-6.909631348E-1,2.997366943E0,1.006762949E1
1.266420888E1,9.457033997E0,-6.691085815E-1,2.939587097E0,9.925944318E0
1.267425588E1,9.320068817E0,-6.427633667E-1,2.906505890E0,9.783895134E0
1.268430388E1,9.170679474E0,-6.474037170E-1,2.848426666E0,9.624657296E0
1.269435088E1,9.017248535E0,-6.017486572E-1,2.816243591E0,9.465944251E0
1.270439788E1,8.848699036E0,-5.757028198E-1,2.777623901E0,9.292260376E0
1.271444488E1,8.697962494E0,-5.610333252E-1,2.718945923E0,9.130278028E0
1.272449188E1,8.577163696E0,-5.337899780E-1,2.670446777E0,8.999108556E0
1.273453988E1,8.461454315E0,-5.135820007E-1,2.634820862E0,8.877063511E0
1.274458688E1,8.364905090E0,-4.896318054E-1,2.603685608E0,8.774426205E0
1.275463388E1,8.300988007E0,-4.743635559E-1,2.578388214E0,8.705142644E0
1.276468088E1,8.249345398E0,-4.423301697E-1,2.548899536E0,8.645475367E0
1.277472788E1,8.172405396E0,-4.225712585E-1,2.525697784E0,8.564223591E0
1.278477588E1,8.139174500E0,-4.176315308E-1,2.518812103E0,8.530239858E0
1.279482288E1,8.112978973E0,-4.059558105E-1,2.514770508E0,8.503487440E0
1.280486988E1,8.095465393E0,-3.800596619E-1,2.500250702E0,8.481288749E0
1.281491688E1,8.111182709E0,-3.733236694E-1,2.512225800E0,8.499525514E0
1.282496388E1,8.097710724E0,-3.788621521E-1,2.507136383E0,8.485410322E0
1.283501088E1,8.077802124E0,-3.550616455E-1,2.484982452E0,8.458847068E0
1.284505888E1,8.046367493E0,-3.586541748E-1,2.476749573E0,8.426562234E0
1.285510588E1,8.042774963E0,-3.529660034E-1,2.476450195E0,8.422803552E0
1.286515288E1,8.102351074E0,-3.480262756E-1,2.492915955E0,8.484329389E0
1.287519988E1,8.215066681E0,-3.662882996E-1,2.538421326E0,8.606106583E0
1.288524688E1,8.379873962E0,-3.890409851E-1,2.593357086E0,8.780611681E0
1.289529488E1,8.532556458E0,-3.935316467E-1,2.630779266E0,8.937582806E0
1.290534188E1,8.639583893E0,-3.905378723E-1,2.667453003E0,9.050427349E0
1.291538888E1,8.719367981E0,-4.065545654E-1,2.703078918E0,9.137795152E0
1.292543588E1,8.772806854E0,-4.126918030E-1,2.713257751E0,9.192073882E0
1.293548288E1,8.861572266E0,-4.258644104E-1,2.752775574E0,9.289057911E0
1.294553088E1,9.007818146E0,-4.534071350E-1,2.798879700E0,9.443521237E0
1.295557788E1,9.203610992E0,-4.810995483E-1,2.855012970E0,9.648264670E0
1.296562488E1,9.416618042E0,-5.005590820E-1,2.919079742E0,9.871386999E0
1.297567188E1,9.592202911E0,-5.257067871E-1,2.965333557E0,1.005385137E1
1.298571888E1,9.740394745E0,-5.560935974E-1,3.034789124E0,1.021736145E1
1.299576588E1,9.878707123E0,-5.649252319E-1,3.060086517E0,1.035722571E1
1.300581388E1,1.000519409E1,-5.912704468E-1,3.099155273E0,1.049086617E1
1.301586088E1,1.016820511E1,-6.120771790E-1,3.165317688E0,1.066706472E1
1.302590788E1,1.035995636E1,-6.370751953E-1,3.220552826E0,1.086768242E1
1.303595488E1,1.056068893E1,-6.527925110E-1,3.286565552E0,1.107952174E1
1.304600188E1,1.074211166E1,-6.828799438E-1,3.331023102E0,1.126743107E1
1.305604988E1,1.092009155E1,-7.033872986E-1,3.398832092E0,1.145841232E1
1.306609688E1,1.110465775E1,-6.985972595E-1,3.467539215E0,1.165441075E1
1.307614388E1,1.125015518E1,-7.024891663E-1,3.505111084E0,1.180446044E1
1.308619088E1,1.138891663E1,-7.167095947E-1,3.536545715E0,1.194689291E1
1.309623788E1,1.144040955E1,-7.164102173E-1,3.572021942E0,1.200647971E1
1.310628588E1,1.136885834E1,-6.993457031E-1,3.542084198E0,1.192838567E1
1.311633288E1,1.154998169E1,-6.828799438E-1,3.609294434E0,1.212004160E1
1.312637988E1,1.178663956E1,-6.608757019E-1,3.660338287E0,1.235959972E1
1.313642688E1,1.200832855E1,-6.474037170E-1,3.735781403E0,1.259266250E1
1.314647388E1,1.210772186E1,-6.123765564E-1,3.783532104E0,1.269988382E1
1.315652088E1,1.207688599E1,-5.858816528E-1,3.752845917E0,1.266010604E1
1.316656887E1,1.202060303E1,-5.375321960E-1,3.728147278E0,1.259694090E1
1.317661588E1,1.204365509E1,-5.025050354E-1,3.740272064E0,1.262108452E1
1.318666288E1,1.216235825E1,-4.595443726E-1,3.770209808E0,1.274160983E1
1.319670988E1,1.225067459E1,-4.156855774E-1,3.784729614E0,1.282871781E1
1.320675688E1,1.223914856E1,-3.781137085E-1,3.786974945E0,1.281721135E1
1.321680375E1,1.221040833E1,-3.251239014E-1,3.782783661E0,1.278707274E1
1.322685175E1,1.221459961E1,-2.900967407E-1,3.751049652E0,1.278088312E1
1.323689875E1,1.218795502E1,-2.510279846E-1,3.755390625E0,1.275587007E1
1.324694575E1,1.217463272E1,-2.261796570E-1,3.748055878E0,1.274051655E1
1.325699275E1,1.216909424E1,-1.775308228E-1,3.766018524E0,1.273975146E1
1.326703975E1,1.216340607E1,-1.520837402E-1,3.748205566E0,1.272873213E1
1.327708775E1,1.213286957E1,-1.359173584E-1,3.728147278E0,1.269346602E1
1.328713475E1,1.200264038E1,-1.200503540E-1,3.710933075E0,1.256378973E1
1.329718175E1,1.183618652E1,-1.095721436E-1,3.672313385E0,1.239327249E1
1.330722875E1,1.171568710E1,-9.924362183E-2,3.622317352E0,1.226329306E1
1.331727575E1,1.166509232E1,-9.729766846E-2,3.591331787E0,1.220579819E1
1.332732275E1,1.167721710E1,-9.699829102E-2,3.613485718E0,1.222391455E1
1.333737075E1,1.163620239E1,-1.131646729E-1,3.607647858E0,1.218314965E1
1.334741775E1,1.155971146E1,-1.320254517E-1,3.571273499E0,1.209951875E1
1.335746475E1,1.144998962E1,-1.279838562E-1,3.536396027E0,1.198435393E1
1.336751175E1,1.129655869E1,-1.444496155E-1,3.489842834E0,1.182421696E1
1.337755875E1,1.112696136E1,-1.692979431E-1,3.448079681E0,1.165020105E1
1.338760675E1,1.100271973E1,-1.585203552E-1,3.413651276E0,1.152119721E1
1.339765375E1,1.088102280E1,-1.773811340E-1,3.373385010E0,1.139332469E1
1.340770075E1,1.076501404E1,-1.983375549E-1,3.328628082E0,1.126963309E1
1.341774775E1,1.063253952E1,-2.134561157E-1,3.292104034E0,1.113258322E1
1.342779475E1,1.051248917E1,-2.058219910E-1,3.248993683E0,1.100503299E1
1.343784175E1,1.040531204E1,-1.969903564E-1,3.223097534E0,1.089484656E1
1.344788975E1,1.026071274E1,-2.127076721E-1,3.166365509E0,1.074026727E1
1.345793675E1,1.008782227E1,-2.056723022E-1,3.138074341E0,1.056664420E1
1.346798375E1,9.863289185E0,-1.974394226E-1,3.053350525E0,1.032697464E1
1.347803075E1,9.657467194E0,-1.884580994E-1,2.987786865E0,1.011083871E1
1.348807775E1,9.495953064E0,-1.892065430E-1,2.929557953E0,9.939377924E0
1.349812475E1,9.366771698E0,-1.776805115E-1,2.903661804E0,9.808120833E0
1.350817275E1,9.245224457E0,-1.645079041E-1,2.863096161E0,9.679801534E0
1.351821975E1,9.130413208E0,-1.423539734E-1,2.817590790E0,9.556334436E0
1.352826675E1,9.000633087E0,-1.098715210E-1,2.781366119E0,9.421224189E0
1.353831375E1,8.838969269E0,-8.337661743E-2,2.717449036E0,9.247640708E0
1.354836075E1,8.675209808E0,-5.598358154E-2,2.654579773E0,9.072441411E0
1.355840775E1,8.507857819E0,-4.430786133E-2,2.618504791E0,8.901807411E0
1.356845575E1,8.337961121E0,-1.362167358E-2,2.554288330E0,8.720445520E0
1.357850275E1,8.186176758E0,1.451980591E-2,2.503693542E0,8.560501276E0
1.358854975E1,8.066276093E0,5.493576050E-2,2.470462646E0,8.436291462E0
1.359859675E1,7.967631226E0,8.472381592E-2,2.439028015E0,8.333017649E0
1.360864375E1,7.877817993E0,1.118174744E-1,2.404300232E0,8.237304115E0
1.361869075E1,7.814649353E0,1.432521057E-1,2.375559998E0,8.168999387E0
1.362873875E1,7.742948456E0,1.508862305E-1,2.356100464E0,8.094888933E0
1.363878575E1,7.686216431E0,1.945953369E-1,2.331401825E0,8.034377688E0
1.364883275E1,7.632777557E0,2.136058044E-1,2.326312408E0,7.982270986E0
1.365887975E1,7.582631836E0,2.071691895E-1,2.298919373E0,7.926175302E0
1.366892675E1,7.527247009E0,2.538720703E-1,2.299667816E0,7.874793371E0
1.367897375E1,7.498207397E0,2.751278687E-1,2.275418243E0,7.840684773E0
1.368902175E1,7.491770782E0,2.915936279E-1,2.271226959E0,7.833908871E0
1.369906875E1,7.541168060E0,2.911445618E-1,2.282453613E0,7.884388078E0
1.370911575E1,7.611671448E0,3.038681030E-1,2.304607544E0,7.958711829E0
1.371916275E1,7.663014679E0,3.138972473E-1,2.316732330E0,8.011714807E0
1.372920975E1,7.686366119E0,3.038681030E-1,2.325114899E0,8.036088553E0
1.373925675E1,7.704179077E0,3.052153015E-1,2.333647156E0,8.055646509E0
1.374930475E1,7.744295654E0,3.040177917E-1,2.346370697E0,8.097653824E0
1.375935175E1,7.835605774E0,2.755769348E-1,2.375859375E0,8.192519042E0
1.376939875E1,7.987689514E0,2.767744446E-1,2.407892761E0,8.347319056E0
1.377944575E1,8.146209869E0,2.532733154E-1,2.471959534E0,8.516775596E0
1.378949275E1,8.301137695E0,2.354603577E-1,2.512225800E0,8.676151629E0
1.379953975E1,8.417745209E0,2.062710571E-1,2.561772766E0,8.801344321E0
1.380958775E1,8.544681244E0,1.872605896E-1,2.587219849E0,8.929745273E0
1.381963475E1,8.683891754E0,1.428030396E-1,2.655777283E0,9.082043915E0
1.382968175E1,8.864116974E0,1.173559570E-1,2.695594482E0,9.265666288E0
1.383972875E1,9.061406708E0,8.277786255E-2,2.761008453E0,9.473072964E0
1.384977575E1,9.249565430E0,3.742218018E-2,2.834804993E0,9.674294827E0
1.385982275E1,9.464967499E0,2.993774414E-3,2.894231415E0,9.897585271E0
1.386987075E1,9.650132446E0,-4.535568237E-2,2.953358459E0,1.009204833E1
1.387991775E1,9.837542725E0,-8.891510010E-2,3.012635193E0,1.028888349E1
1.388996475E1,1.001582199E1,-1.285826111E-1,3.082689514E0,1.048027663E1
1.390001175E1,1.021341110E1,-1.740879822E-1,3.153641968E0,1.069062817E1
1.391005875E1,1.042791504E1,-2.248324585E-1,3.218157806E0,1.091551654E1
1.392010575E1,1.061173279E1,-2.511776733E-1,3.283571777E0,1.111097685E1
1.393015275E1,1.077234879E1,-2.829116821E-1,3.325783997E0,1.127760509E1
1.394020075E1,1.093056976E1,-3.073109436E-1,3.362158356E0,1.144010071E1
1.395024775E1,1.104433319E1,-3.481759644E-1,3.424428864E0,1.156828575E1
1.396029475E1,1.118863312E1,-3.546125793E-1,3.463946686E0,1.171794298E1
1.397034175E1,1.121437958E1,-3.677851868E-1,3.480861511E0,1.174793480E1
1.398038875E1,1.116408417E1,-3.815565491E-1,3.454216919E0,1.169247515E1
1.399043575E1,1.147154480E1,-4.122427368E-1,3.552263031E0,1.201602500E1
1.400048375E1,1.179921341E1,-4.173321533E-1,3.659140778E0,1.236061950E1
1.401053075E1,1.203018311E1,-4.225712585E-1,3.725901947E0,1.260104033E1
1.402057775E1,1.212403793E1,-3.966751099E-1,3.752696228E0,1.269773113E1
1.403062475E1,1.202180054E1,-4.007167053E-1,3.736679535E0,1.259551650E1
1.404067175E1,1.192525131E1,-3.981719971E-1,3.710034943E0,1.249537991E1
1.405071875E1,1.193932205E1,-3.727249146E-1,3.709885254E0,1.250798079E1
1.406076675E1,1.209439957E1,-3.540138245E-1,3.749552765E0,1.266724013E1
1.407081375E1,1.222462875E1,-3.344046021E-1,3.786376190E0,1.280195373E1
1.408086075E1,1.230381409E1,-3.195854187E-1,3.819457397E0,1.288697912E1
1.409090775E1,1.231534012E1,-3.026705933E-1,3.813320160E0,1.289575986E1
1.410095475E1,1.229812592E1,-2.739303589E-1,3.801644440E0,1.287522580E1
1.411100175E1,1.212852859E1,-2.430944824E-1,3.754642181E0,1.269872587E1
1.412104875E1,1.143696671E1,-2.339634705E-1,3.530707855E0,1.197183546E1
1.413109675E1,1.136122421E1,-2.261796570E-1,3.499123535E0,1.189001423E1
1.414114375E1,1.206042023E1,-2.143542480E-1,3.704197083E0,1.261827087E1
1.415119075E1,1.265109192E1,-2.004331970E-1,3.905528412E0,1.324173147E1
1.416123775E1,1.271396118E1,-2.139051819E-1,3.938010864E0,1.331159246E1
1.417128475E1,1.229273712E1,-2.230361938E-1,3.801345062E0,1.286900755E1
1.418133175E1,1.174891800E1,-2.164498901E-1,3.627556458E0,1.229809296E1
1.419137975E1,1.142828476E1,-2.139051819E-1,3.538341980E0,1.196542151E1
1.420142675E1,1.144340332E1,-2.344125366E-1,3.539689178E0,1.198064390E1
1.421147375E1,1.164129181E1,-2.676434326E-1,3.597319336E0,1.218737110E1
1.422152067E1,1.169772446E1,-2.877017212E-1,3.619323578E0,1.224822570E1
1.423156767E1,1.151929550E1,-3.185375977E-1,3.567531281E0,1.206328788E1
1.424161467E1,1.119207596E1,-3.393443298E-1,3.473826141E0,1.172370193E1
1.425166167E1,1.094074860E1,-3.725752258E-1,3.391048279E0,1.146027925E1
1.426170967E1,1.079091019E1,-3.930825806E-1,3.327131195E0,1.129902910E1
1.427175667E1,1.079255676E1,-4.287084961E-1,3.342698822E0,1.130648963E1
1.428180367E1,1.082578766E1,-4.649331665E-1,3.353177032E0,1.134273501E1
1.429185067E1,1.072968750E1,-4.990621948E-1,3.334615631E0,1.124699597E1
1.430189767E1,1.051488419E1,-5.210664368E-1,3.283272400E0,1.102788181E1
1.431194467E1,1.029394363E1,-5.278024292E-1,3.207230530E0,1.079491448E1
1.432199167E1,1.012569351E1,-5.510041809E-1,3.161425781E0,1.062204725E1
1.433203967E1,1.002809647E1,-5.656736755E-1,3.132835236E0,1.052128139E1
1.434208667E1,9.926906891E0,-5.819897461E-1,3.090922394E0,1.041326048E1
1.435213367E1,9.848320312E0,-6.213578796E-1,3.079995117E0,1.033740144E1
1.436218067E1,9.754615173E0,-6.312373352E-1,3.046913910E0,1.023887993E1
1.437222767E1,9.632020111E0,-6.297404480E-1,2.998115387E0,1.010747646E1
1.438227467E1,9.462871857E0,-6.245013428E-1,2.945874023E0,9.930464212E0
1.439232167E1,9.283245392E0,-6.233038330E-1,2.901715851E0,9.746132954E0
1.440236967E1,9.130562897E0,-6.189628601E-1,2.855761414E0,9.586744342E0
1.441241667E1,9.053922272E0,-6.183641052E-1,2.823129272E0,9.503996084E0
1.442246367E1,9.020092621E0,-6.176156616E-1,2.823728027E0,9.471903714E0
1.443251067E1,8.941056976E0,-6.197113037E-1,2.800526276E0,9.389860988E0
1.444255767E1,8.854985962E0,-6.274951172E-1,2.772983551E0,9.300213131E0
1.445260467E1,8.778944092E0,-6.113287354E-1,2.740650787E0,9.217090047E0
1.446265167E1,8.706195374E0,-5.899232483E-1,2.728376312E0,9.142750386E0
1.447269967E1,8.629554749E0,-5.812413025E-1,2.698588257E0,9.060322025E0
1.448274667E1,8.531658325E0,-5.653742981E-1,2.677182770E0,8.959695835E0
1.449279367E1,8.440797272E0,-5.617817688E-1,2.643203430E0,8.862797623E0
1.450284067E1,8.348289642E0,-5.532495117E-1,2.606529694E0,8.763219843E0
1.451288767E1,8.298293610E0,-5.343887329E-1,2.581381989E0,8.706938677E0
1.452293467E1,8.269403687E0,-5.269042969E-1,2.594704285E0,8.682923229E0
1.453298167E1,8.266110535E0,-5.137316895E-1,2.582579498E0,8.675380135E0
1.454302967E1,8.285869446E0,-5.017565918E-1,2.573298798E0,8.690757093E0
1.455307667E1,8.316106567E0,-4.977149963E-1,2.583028564E0,8.722235105E0
1.456312367E1,8.344397736E0,-4.965174866E-1,2.596500549E0,8.753131913E0
1.457317067E1,8.324339447E0,-4.745132446E-1,2.589465179E0,8.730699855E0
1.458321767E1,8.302484894E0,-4.544549561E-1,2.569706268E0,8.702940596E0
1.459326467E1,8.294401703E0,-4.510121155E-1,2.565814362E0,8.693901016E0
1.460331167E1,8.331973572E0,-4.423301697E-1,2.581831055E0,8.734030637E0
1.461335967E1,8.443042603E0,-4.370910645E-1,2.612367554E0,8.848755914E0
1.462340667E1,8.596174164E0,-4.402345276E-1,2.652783508E0,9.006957146E0
1.463345367E1,8.734336853E0,-4.451742554E-1,2.694396973E0,9.151316595E0
1.464350067E1,8.852291565E0,-4.444258118E-1,2.732268219E0,9.275013201E0
1.465354767E1,8.927285614E0,-4.299060059E-1,2.774480438E0,9.358364671E0
1.466359467E1,9.018296356E0,-4.278103638E-1,2.784808960E0,9.448166585E0
1.467364167E1,9.108558655E0,-4.343966675E-1,2.818638611E0,9.544593488E0
1.468368967E1,9.223968658E0,-4.360432434E-1,2.864892426E0,9.668471448E0
1.469373667E1,9.380842438E0,-4.369413757E-1,2.910098419E0,9.831571361E0
1.470378367E1,9.556726685E0,-4.529580688E-1,2.966980133E0,1.001694400E1
1.471383067E1,9.773775330E0,-4.555027771E-1,3.031795349E0,1.024333686E1
1.472387767E1,9.976004791E0,-4.622387695E-1,3.091221771E0,1.045418521E1
1.473392467E1,1.016386414E1,-4.760101318E-1,3.161725159E0,1.065491557E1
1.474397167E1,1.031969009E1,-4.972659302E-1,3.206631775E0,1.081784472E1
1.475401967E1,1.046623535E1,-4.963677979E-1,3.254831543E0,1.097189099E1
1.476406667E1,1.057655594E1,-5.056484985E-1,3.273991699E0,1.108324129E1
1.477411367E1,1.068552933E1,-5.104385376E-1,3.315754852E0,1.119979083E1
1.478416067E1,1.081231567E1,-5.355862427E-1,3.337759094E0,1.132844467E1
1.479420767E1,1.094239517E1,-5.334906006E-1,3.374283142E0,1.146326354E1
1.480425467E1,1.106109833E1,-5.438191223E-1,3.427871704E0,1.159284003E1
1.481430167E1,1.119477036E1,-5.447172546E-1,3.471880188E0,1.173343736E1
1.482434867E1,1.125210114E1,-5.372328186E-1,3.479813690E0,1.179014429E1
1.483439667E1,1.121887024E1,-5.535488892E-1,3.478616180E0,1.175883652E1
1.484444367E1,1.140478363E1,-5.548960876E-1,3.517535248E0,1.194780539E1
1.485449067E1,1.163844772E1,-5.315446472E-1,3.597319336E0,1.219330601E1
1.486453767E1,1.183094742E1,-5.526507568E-1,3.678750000E0,1.240201360E1
1.487458467E1,1.197360077E1,-5.504054260E-1,3.706592102E0,1.254626982E1
1.488463167E1,1.196237411E1,-5.400769043E-1,3.703149261E0,1.253408920E1
1.489467867E1,1.196072754E1,-5.177732849E-1,3.709436188E0,1.253343565E1
1.490472567E1,1.201716019E1,-5.140310669E-1,3.721261597E0,1.259063758E1
1.491477367E1,1.209874054E1,-5.119354248E-1,3.748055878E0,1.267633714E1
1.492482067E1,1.215936447E1,-4.893324280E-1,3.767066345E0,1.273893164E1
1.493486767E1,1.219364319E1,-4.558021545E-1,3.771856384E0,1.277182800E1
1.494491467E1,1.221130646E1,-4.382885742E-1,3.777095490E0,1.278962676E1
1.495496167E1,1.220846237E1,-4.272116089E-1,3.768563232E0,1.278401862E1
1.496500867E1,1.217762650E1,-4.044589233E-1,3.744613037E0,1.274677610E1
1.497505567E1,1.210547653E1,-3.733236694E-1,3.739373932E0,1.267536390E1
1.498510367E1,1.203901474E1,-3.456312561E-1,3.710184631E0,1.260249209E1
1.499515067E1,1.202045334E1,-3.418890381E-1,3.708088989E0,1.258404190E1
1.500519767E1,1.199770065E1,-3.014730835E-1,3.723057861E0,1.256570200E1
1.501524467E1,1.193004135E1,-2.859054565E-1,3.667373657E0,1.248428044E1
1.502529167E1,1.175280991E1,-2.621049500E-1,3.623963928E0,1.230164031E1
1.503533867E1,1.162332916E1,-2.401007080E-1,3.585044861E0,1.216601725E1
1.504538567E1,1.154474258E1,-2.302212524E-1,3.563489685E0,1.208439249E1
1.505543267E1,1.151809799E1,-2.145039368E-1,3.560944977E0,1.205789876E1
1.506548067E1,1.150492538E1,-1.874102783E-1,3.548969879E0,1.204132957E1
1.507552767E1,1.142978165E1,-1.719923401E-1,3.525319061E0,1.196233106E1
1.508557467E1,1.128862518E1,-1.654060364E-1,3.477568359E0,1.181329333E1
1.509562167E1,1.105047043E1,-1.580712891E-1,3.392395477E0,1.156054628E1
1.510566867E1,1.083177521E1,-1.335223389E-1,3.337310028E0,1.133502627E1
1.511571567E1,1.068687653E1,-1.357676697E-1,3.299588470E0,1.118548375E1
1.512576267E1,1.062131287E1,-1.094224548E-1,3.265160065E0,1.111240435E1
1.513580967E1,1.058598633E1,-1.094224548E-1,3.247945862E0,1.107358262E1
1.514585767E1,1.046608566E1,-1.017883301E-1,3.215613098E0,1.094940535E1
1.515590467E1,1.029469208E1,-8.726852417E-2,3.156486053E0,1.076808734E1
1.516595167E1,1.011910721E1,-8.307723999E-2,3.123105469E0,1.059042116E1
1.517599867E1,9.960886230E0,-8.786727905E-2,3.063978424E0,1.042184911E1
1.518604567E1,9.803264008E0,-7.349716187E-2,3.014880524E0,1.025665109E1
1.519609267E1,9.647887115E0,-6.197113037E-2,2.977009277E0,1.009693768E1
1.520613967E1,9.503886566E0,-4.685256958E-2,2.914738770E0,9.940913294E0
1.521618663E1,9.280401306E0,-3.023712158E-2,2.848875732E0,9.707875958E0
1.522623463E1,8.976682892E0,-4.041595459E-2,2.752925262E0,9.389412478E0
1.523628163E1,8.663234711E0,-4.700225830E-2,2.649640045E0,9.059494314E0
1.524632863E1,8.546926575E0,-2.709365845E-2,2.628384247E0,8.941984773E0
1.525637563E1,8.695717163E0,-1.407073975E-2,2.658321991E0,9.092984701E0
1.526642263E1,8.944499817E0,-1.945953369E-3,2.731819153E0,9.352374920E0
1.527646963E1,8.988358612E0,1.481918335E-2,2.755619659E0,9.401289797E0
1.528651663E1,8.756790161E0,2.185455322E-2,2.683170319E0,9.158671001E0
1.529656363E1,8.412655792E0,2.439926147E-2,2.591560822E0,8.802815475E0
1.530661163E1,8.134683838E0,4.370910645E-2,2.487377472E0,8.506587936E0
1.531665863E1,7.925718384E0,5.224136353E-2,2.435734863E0,8.291715467E0
1.532670563E1,7.798932037E0,6.122268677E-2,2.383942566E0,8.155382965E0
1.533675263E1,7.747139740E0,8.262817383E-2,2.378404083E0,8.104431353E0
1.534679963E1,7.817792816E0,8.696914673E-2,2.397414551E0,8.177594064E0
1.535684662E1,7.893684998E0,9.355545044E-2,2.416275330E0,8.255749629E0
1.536689363E1,7.881560211E0,1.222956848E-1,2.407144318E0,8.241862130E0
1.537694063E1,7.775730286E0,1.210981750E-1,2.376607819E0,8.131722509E0
1.538698763E1,7.663463745E0,1.329235840E-1,2.342329102E0,8.014539966E0
1.539703563E1,7.657625885E0,1.441502380E-1,2.334096222E0,8.006748320E0
1.540708263E1,7.735314331E0,1.480421448E-1,2.355202332E0,8.087272859E0
1.541712963E1,7.847580872E0,1.595681763E-1,2.393372955E0,8.205986939E0
1.542717663E1,7.920928345E0,1.796264648E-1,2.415526886E0,8.283003178E0
1.543722363E1,7.929011536E0,1.788780212E-1,2.430944824E0,8.295222361E0
1.544727063E1,7.873776398E0,1.782792664E-1,2.397564240E0,8.232645537E0
1.545731763E1,7.815996552E0,1.773811340E-1,2.372266846E0,8.170000988E0
1.546736463E1,7.846233673E0,1.790277100E-1,2.391576691E0,8.204576335E0
1.547741263E1,8.018226013E0,1.809736633E-1,2.443818054E0,8.384327436E0
1.548745963E1,8.219108276E0,1.923500061E-1,2.511177979E0,8.596322134E0
1.549750663E1,8.368198242E0,1.748364258E-1,2.549049225E0,8.749569221E0
1.550755363E1,8.425828400E0,1.791773987E-1,2.570005646E0,8.810880647E0
1.551760063E1,8.426127777E0,1.561253357E-1,2.557132416E0,8.806981925E0
1.552764763E1,8.481662292E0,1.537303162E-1,2.577041016E0,8.865854085E0
1.553769463E1,8.653654633E0,1.402583313E-1,2.633623352E0,9.046622732E0
1.554774163E1,8.862320709E0,1.357676697E-1,2.699486389E0,9.265332589E0
1.555778863E1,9.058412933E0,1.190025330E-1,2.747985535E0,9.466806799E0
1.556783663E1,9.202114105E0,7.753875732E-2,2.797083435E0,9.618138698E0
1.557788363E1,9.284293213E0,7.020401001E-2,2.832709351E0,9.707073263E0
1.558793063E1,9.406738586E0,4.340972900E-2,2.867137756E0,9.834078205E0
1.559797763E1,9.585766296E0,3.293151855E-3,2.919678497E0,1.002055133E1
1.560802463E1,9.809101868E0,-1.437011719E-2,2.994822235E0,1.025610287E1
1.561807163E1,1.003438339E1,-5.568420410E-2,3.069217529E0,1.049342876E1
1.562811863E1,1.023541534E1,-9.116043091E-2,3.140469360E0,1.070675419E1
1.563816563E1,1.041593994E1,-1.257385254E-1,3.187022552E0,1.089333410E1
1.564821263E1,1.056907150E1,-1.410067749E-1,3.254232788E0,1.105961963E1
1.565826063E1,1.071531738E1,-1.875599670E-1,3.298840027E0,1.121318647E1
1.566830763E1,1.089973389E1,-2.146536255E-1,3.353925476E0,1.140609885E1
1.567835463E1,1.113264954E1,-2.490820312E-1,3.449277191E0,1.165741998E1
1.568840163E1,1.139176071E1,-2.784210205E-1,3.532953186E0,1.193027613E1
1.569844863E1,1.110555588E1,-2.968327332E-1,3.429667969E0,1.162686989E1
1.570849563E1,1.069540878E1,-3.212319946E-1,3.300785980E0,1.119777420E1
1.571854262E1,1.061816940E1,-3.363505554E-1,3.267704773E0,1.111469962E1
1.572858963E1,1.095377151E1,-3.607498169E-1,3.392545166E0,1.147277706E1
1.573863663E1,1.172391998E1,-3.860472107E-1,3.629951477E0,1.227908303E1
1.574868463E1,1.231953140E1,-4.102967834E-1,3.818858643E0,1.290437440E1
1.575873163E1,1.264525406E1,-4.385879517E-1,3.920796661E0,1.324641295E1
1.576877863E1,1.259061768E1,-4.342469788E-1,3.897894287E0,1.318733498E1
1.577882563E1,1.236698273E1,-4.303550720E-1,3.826343079E0,1.295254294E1
1.578887263E1,1.203721848E1,-4.099974060E-1,3.730991364E0,1.260884702E1
1.579891963E1,1.189456512E1,-4.198768616E-1,3.681743774E0,1.245841937E1
1.580896663E1,1.202569244E1,-4.108955383E-1,3.718267822E0,1.259411091E1
1.581901363E1,1.226115280E1,-3.959266663E-1,3.793710938E0,1.284075031E1
1.582906063E1,1.239108261E1,-3.930825806E-1,3.837569733E0,1.297768792E1
1.583910863E1,1.225845840E1,-3.779640198E-1,3.814517670E0,1.284380023E1
1.584915563E1,1.205069046E1,-3.688330078E-1,3.747307434E0,1.262527193E1
1.585920263E1,1.193782516E1,-3.438349915E-1,3.714525604E0,1.250710169E1
1.586924963E1,1.197030762E1,-3.158432007E-1,3.724554749E0,1.254034806E1
1.587929663E1,1.200204163E1,-3.005749512E-1,3.740122375E0,1.257489021E1
1.588934363E1,1.191656937E1,-3.106040955E-1,3.698957977E0,1.248132166E1
1.589939063E1,1.170550827E1,-2.906954956E-1,3.641028442E0,1.226215788E1
1.590943763E1,1.155836426E1,-2.893482971E-1,3.587140503E0,1.210566329E1
1.591948463E1,1.145118713E1,-2.751278687E-1,3.535497894E0,1.198770735E1
1.592953163E1,1.137739059E1,-2.757266235E-1,3.523672485E0,1.191374457E1
1.593957963E1,1.129595993E1,-2.944377136E-1,3.474424896E0,1.182188786E1
1.594962663E1,1.119566849E1,-3.017724609E-1,3.457510071E0,1.172128130E1
1.595967363E1,1.112022537E1,-3.037184143E-1,3.440445557E0,1.164423990E1
1.596972063E1,1.100945572E1,-3.134481812E-1,3.396586761E0,1.152576100E1
1.597976763E1,1.089209976E1,-3.402424622E-1,3.373385010E0,1.140759960E1
1.598981463E1,1.095691498E1,-3.411405945E-1,3.389701080E0,1.147433816E1
1.599986163E1,1.090961334E1,-3.610491943E-1,3.390449524E0,1.143001171E1
1.600990863E1,1.071546707E1,-3.914360046E-1,3.340603180E0,1.123094325E1
1.601995563E1,1.056368271E1,-4.143383789E-1,3.280877380E0,1.106920164E1
1.603000263E1,1.029618896E1,-4.138893127E-1,3.220702515E0,1.079609820E1
1.604005063E1,1.010279114E1,-4.483177185E-1,3.162623291E0,1.059573327E1
1.605009763E1,9.987381134E0,-4.496649170E-1,3.115471344E0,1.047168287E1
1.606014463E1,9.918224945E0,-4.727169800E-1,3.106939087E0,1.040421635E1
1.607019163E1,9.893675995E0,-4.996609497E-1,3.094814301E0,1.037845660E1
1.608023862E1,9.695039063E0,-5.152285767E-1,3.035836945E0,1.017229320E1
1.609028563E1,9.249565430E0,-5.096900940E-1,2.895728302E0,9.705642020E0
1.610033263E1,8.730894012E0,-5.087919617E-1,2.748584290E0,9.167447579E0
1.611037963E1,8.464298401E0,-5.071453857E-1,2.629881134E0,8.877940000E0
1.612042663E1,8.635542297E0,-5.209167480E-1,2.679727478E0,9.056759044E0
1.613047463E1,9.174421692E0,-5.758525085E-1,2.847378845E0,9.623366655E0
1.614052163E1,9.641899567E0,-5.956114197E-1,2.990780640E0,1.011265292E1
1.615056863E1,9.615704041E0,-6.227050781E-1,2.968477020E0,1.008272689E1
1.616061563E1,9.148525543E0,-5.972579956E-1,2.828218689E0,9.594324243E0
1.617066263E1,8.622818756E0,-5.607339478E-1,2.673739929E0,9.045236927E0
1.618070963E1,8.390052795E0,-5.450166321E-1,2.609673157E0,8.803432457E0
1.619075663E1,8.470136261E0,-5.405259705E-1,2.636617126E0,8.887470196E0
1.620080363E1,8.708141327E0,-5.716612244E-1,2.702629852E0,9.135793892E0
1.621085063E1,8.894054718E0,-5.971083069E-1,2.789149933E0,9.340241164E0
1.622089713E1,8.902287598E0,-5.944139099E-1,2.789748688E0,9.348088046E0
1.623094413E1,8.681796112E0,-5.620811462E-1,2.718496857E0,9.114809055E0
1.624099213E1,8.339458008E0,-5.349874878E-1,2.607577515E0,8.753983777E0
1.625103913E1,8.195307770E0,-5.421725464E-1,2.570454712E0,8.606059373E0
1.626108613E1,8.248746643E0,-5.287005615E-1,2.579136658E0,8.658711877E0
1.627113313E1,8.426576843E0,-5.343887329E-1,2.624492340E0,8.841986692E0
1.628118013E1,8.564440155E0,-5.295986938E-1,2.683320007E0,8.990568180E0
1.629122713E1,8.574020233E0,-5.200186157E-1,2.686613159E0,9.000118476E0
1.630127413E1,8.426427155E0,-4.987628174E-1,2.617007904E0,8.837543172E0
1.631132113E1,8.250542908E0,-4.849914551E-1,2.574196930E0,8.656394447E0
1.632136813E1,8.166866913E0,-4.929249573E-1,2.539319458E0,8.566728284E0
1.633141513E1,8.188571777E0,-4.772076416E-1,2.549947357E0,8.589683720E0
1.634146213E1,8.336613922E0,-4.713697815E-1,2.583327942E0,8.740417863E0
1.635151013E1,8.540639648E0,-4.728666687E-1,2.643652496E0,8.952933989E0
1.636155713E1,8.755592651E0,-4.700225830E-1,2.717449036E0,9.179643412E0
1.637160413E1,8.939410400E0,-4.667294312E-1,2.760858765E0,9.367669710E0
1.638165113E1,9.129066010E0,-4.772076416E-1,2.823877716E0,9.567750974E0
1.639169813E1,9.232351227E0,-4.731660461E-1,2.854264526E0,9.675072158E0
1.640174513E1,9.255253601E0,-4.737648010E-1,2.870281219E0,9.701684729E0
1.641179212E1,9.248667297E0,-4.605921936E-1,2.857557678E0,9.691007576E0
1.642183913E1,9.289682007E0,-4.555027771E-1,2.890788574E0,9.739729624E0
1.643188613E1,9.441915436E0,-4.623884583E-1,2.929408264E0,9.896716777E0
1.644193313E1,9.685009918E0,-4.590953064E-1,3.032394104E0,1.015901568E1
1.645198113E1,9.961634674E0,-4.653822327E-1,3.110980682E0,1.044648012E1
1.646202813E1,1.021191422E1,-4.691244507E-1,3.192111969E0,1.070947471E1
1.647207513E1,1.038270905E1,-4.896318054E-1,3.227887573E0,1.088391679E1
1.648212213E1,1.052176987E1,-4.775070190E-1,3.261717224E0,1.102608060E1
1.649216913E1,1.064975372E1,-4.802014160E-1,3.304228821E0,1.116090390E1
1.650221613E1,1.078626984E1,-4.776567078E-1,3.349734192E0,1.130453414E1
1.651226313E1,1.094913116E1,-4.840933228E-1,3.390000458E0,1.147213680E1
1.652231013E1,1.107576782E1,-4.891827393E-1,3.421435089E0,1.160250622E1
1.653235713E1,1.122410934E1,-4.793032837E-1,3.469784546E0,1.175796611E1
1.654240413E1,1.136302048E1,-4.902305603E-1,3.486549683E0,1.189599046E1
1.655245113E1,1.132589767E1,-4.884342957E-1,3.504512329E0,1.186575463E1
1.656249813E1,1.131676666E1,-4.805007935E-1,3.489543457E0,1.185229945E1
1.657254613E1,1.145657593E1,-4.605921936E-1,3.547472992E0,1.200207656E1
1.658259313E1,1.165865570E1,-4.628375244E-1,3.604654083E0,1.221196145E1
1.659264013E1,1.180714691E1,-4.659809875E-1,3.659290466E0,1.236997426E1
1.660268713E1,1.186193298E1,-4.608915710E-1,3.681594086E0,1.242867693E1
1.661273413E1,1.181837357E1,-4.460723877E-1,3.672014008E0,1.238372404E1
1.662278113E1,1.176867691E1,-4.367916870E-1,3.659889221E0,1.233236929E1
1.663282813E1,1.179202835E1,-4.261637878E-1,3.673061829E0,1.235819289E1
1.664287513E1,1.187585403E1,-4.164340210E-1,3.698359222E0,1.244536811E1
1.665292213E1,1.193932205E1,-4.237687683E-1,3.717070312E0,1.251173860E1
1.666296913E1,1.199455719E1,-3.941304016E-1,3.722159729E0,1.256499956E1
1.667301613E1,1.208736420E1,-3.891906738E-1,3.743116150E0,1.265965091E1
1.668306413E1,1.211041626E1,-3.794609070E-1,3.762575684E0,1.268712530E1
1.669311113E1,1.202539307E1,-3.820056152E-1,3.712280273E0,1.259114894E1
1.670315813E1,1.189291855E1,-3.532653809E-1,3.676055603E0,1.245309973E1
1.671320513E1,1.180505127E1,-3.426374817E-1,3.651506653E0,1.236163973E1
1.672325213E1,1.176658127E1,-3.270698547E-1,3.645519104E0,1.232271151E1
1.673329913E1,1.172302185E1,-3.171903992E-1,3.631747742E0,1.227678471E1
1.674334613E1,1.162527512E1,-3.059637451E-1,3.606001282E0,1.217554436E1
1.675339313E1,1.149818939E1,-2.842588806E-1,3.553310852E0,1.203807212E1
1.676344013E1,1.142993134E1,-2.580633545E-1,3.537593536E0,1.196764367E1
1.677348713E1,1.137050491E1,-2.487826538E-1,3.527115326E0,1.190759494E1
1.678353413E1,1.129431335E1,-2.387535095E-1,3.507955170E0,1.182895882E1
1.679358113E1,1.121108643E1,-2.248324585E-1,3.479214935E0,1.174069611E1
1.680362813E1,1.109343109E1,-2.157014465E-1,3.453917542E0,1.162068358E1
1.681367613E1,1.099763031E1,-1.980381775E-1,3.406615906E0,1.151486533E1
1.682372313E1,1.087593338E1,-1.691482544E-1,3.370690613E0,1.138754114E1
