"Time (s)","Gyroscope x (rad/s)","Gyroscope y (rad/s)","Gyroscope z (rad/s)","Absolute (rad/s)"
1.802125700E-2,2.474999987E-3,3.712499980E-3,-3.712499980E-3,5.804389471E-3
2.041810400E-2,3.712499980E-3,8.662499487E-3,-3.712499980E-3,1.012937360E-2
2.281472100E-2,2.474999987E-3,8.662499487E-3,-2.474999987E-3,9.342919631E-3
2.521141100E-2,2.474999987E-3,3.712499980E-3,-3.712499980E-3,5.804389471E-3
2.760825700E-2,1.374999993E-3,2.474999987E-3,-3.712499980E-3,4.668929857E-3
3.000488400E-2,1.374999993E-3,1.237499993E-3,-4.949999973E-3,5.284366655E-3
3.240272800E-2,2.474999987E-3,2.474999987E-3,-3.712499980E-3,5.102343184E-3
3.479819200E-2,2.474999987E-3,3.712499980E-3,-3.712499980E-3,5.804389471E-3
3.719503600E-2,2.474999987E-3,3.712499980E-3,-2.474999987E-3,5.102343184E-3
3.959165100E-2,3.712499980E-3,1.237499993E-3,-2.474999987E-3,4.630300991E-3
4.198832900E-2,3.712499980E-3,2.474999987E-3,-2.474999987E-3,5.102343184E-3
4.438517600E-2,2.474999987E-3,3.712499980E-3,-2.474999987E-3,5.102343184E-3
4.678179300E-2,3.712499980E-3,0.000000000E0,-3.712499980E-3,5.250267822E-3
4.917848300E-2,2.474999987E-3,2.474999987E-3,-3.712499980E-3,5.102343184E-3
5.157632900E-2,2.474999987E-3,2.474999987E-3,-2.474999987E-3,4.286825726E-3
5.397194600E-2,1.374999993E-3,1.237499993E-3,-2.474999987E-3,3.089928178E-3
5.636863600E-2,3.712499980E-3,-1.099999994E-3,-2.474999987E-3,4.595463091E-3
5.876548200E-2,3.712499980E-3,0.000000000E0,-2.474999987E-3,4.461869679E-3
6.116210000E-2,2.474999987E-3,1.237499993E-3,-3.712499980E-3,4.630300991E-3
6.355871500E-2,3.712499980E-3,2.474999987E-3,-2.474999987E-3,5.102343184E-3
6.595563600E-2,4.949999973E-3,1.237499993E-3,-2.474999987E-3,5.670937392E-3
6.835225400E-2,2.474999987E-3,1.237499993E-3,-1.374999993E-3,3.089928178E-3
7.075009800E-2,1.374999993E-3,-1.099999994E-3,-1.374999993E-3,2.234110549E-3
7.314556100E-2,1.374999993E-3,-1.099999994E-3,-3.712499980E-3,4.108926997E-3
7.554240500E-2,1.374999993E-3,0.000000000E0,-1.374999993E-3,1.944543638E-3
7.793901100E-2,1.374999993E-3,1.237499993E-3,-1.374999993E-3,2.304919997E-3
8.033570300E-2,-1.099999994E-3,-2.337499987E-3,-2.474999987E-3,3.577643234E-3
8.273254900E-2,-1.099999994E-3,0.000000000E0,-2.474999987E-3,2.708435881E-3
8.512916700E-2,-1.099999994E-3,-1.099999994E-3,-2.474999987E-3,2.923290083E-3
8.752585700E-2,-1.099999994E-3,-1.099999994E-3,-2.474999987E-3,2.923290083E-3
8.992370300E-2,-1.099999994E-3,-3.574999981E-3,-1.374999993E-3,3.985128584E-3
9.231932100E-2,-2.337499987E-3,-2.337499987E-3,-2.474999987E-3,4.129580767E-3
9.471593400E-2,1.374999993E-4,-1.099999994E-3,-2.474999987E-3,2.711923887E-3
9.711262600E-2,-2.337499987E-3,-1.099999994E-3,-3.712499980E-3,4.522893131E-3
9.950947200E-2,-3.574999981E-3,0.000000000E0,-2.474999987E-3,4.348131759E-3
1.019060990E-1,1.374999993E-4,1.237499993E-3,-2.474999987E-3,2.770548216E-3
1.043027890E-1,1.374999993E-4,0.000000000E0,-1.374999993E-3,1.381857890E-3
1.066996350E-1,1.374999993E-4,-2.337499987E-3,-2.474999987E-3,3.407115697E-3
1.090974810E-1,-1.099999994E-3,-2.337499987E-3,-2.474999987E-3,3.577643234E-3
1.114929450E-1,-2.337499987E-3,-2.337499987E-3,-1.374999993E-3,3.580284536E-3
1.138897940E-1,-2.337499987E-3,-2.337499987E-3,-3.712499980E-3,4.970962531E-3
1.162864090E-1,-2.337499987E-3,0.000000000E0,-2.474999987E-3,3.404340042E-3
1.186831020E-1,-4.812499974E-3,1.237499993E-3,-2.474999987E-3,5.551323010E-3
1.210799480E-1,-3.574999981E-3,1.237499993E-3,-4.949999973E-3,6.230130884E-3
1.234765650E-1,-3.574999981E-3,-1.099999994E-3,-2.474999987E-3,4.485114244E-3
1.258731810E-1,-4.812499974E-3,0.000000000E0,-3.712499980E-3,6.078059896E-3
1.282711020E-1,-2.337499987E-3,1.237499993E-3,-1.374999993E-3,2.980928950E-3
1.306667190E-1,-3.574999981E-3,1.237499993E-3,-1.374999993E-3,4.025252299E-3
1.330633330E-1,-2.337499987E-3,1.237499993E-3,-2.474999987E-3,3.622283445E-3
1.354600250E-1,-1.099999994E-3,2.474999987E-3,-2.474999987E-3,3.668957598E-3
1.378568950E-1,-2.337499987E-3,3.712499980E-3,-3.712499980E-3,5.747105218E-3
1.402535120E-1,-2.337499987E-3,4.949999973E-3,-2.474999987E-3,6.007664343E-3
1.426502030E-1,-2.337499987E-3,8.662499487E-3,-2.474999987E-3,9.307439417E-3
1.450468200E-1,-1.099999994E-3,4.949999973E-3,-3.712499980E-3,6.284517151E-3
1.474448950E-1,1.374999993E-4,3.712499980E-3,-2.474999987E-3,4.463987823E-3
1.498403580E-1,-2.337499987E-3,4.949999973E-3,-3.712499980E-3,6.614307373E-3
1.522369710E-1,-2.337499987E-3,3.712499980E-3,-3.712499980E-3,5.747105218E-3
1.546338170E-1,1.374999993E-4,2.474999987E-3,-3.712499980E-3,4.463987823E-3
1.570305120E-1,1.374999993E-3,3.712499980E-3,-3.712499980E-3,5.427332418E-3
1.594271270E-1,1.374999993E-4,4.949999973E-3,-3.712499980E-3,6.189027556E-3
1.618239620E-1,1.374999993E-4,7.424999960E-3,-2.474999987E-3,7.827844888E-3
1.642206560E-1,1.374999993E-4,6.187499966E-3,-2.474999987E-3,6.665559768E-3
1.666185010E-1,1.374999993E-3,6.187499966E-3,-1.374999993E-3,6.485861993E-3
1.690141180E-1,1.374999993E-3,4.949999973E-3,-2.474999987E-3,5.702521341E-3
1.714108080E-1,1.374999993E-4,4.949999973E-3,-3.712499980E-3,6.189027556E-3
1.738074380E-1,1.374999993E-3,6.187499966E-3,-1.374999993E-3,6.485861993E-3
1.762042840E-1,1.374999993E-3,6.187499966E-3,-2.474999987E-3,6.804513631E-3
1.786009010E-1,1.374999993E-3,4.949999973E-3,-2.474999987E-3,5.702521341E-3
1.809975910E-1,2.474999987E-3,4.949999973E-3,-3.712499980E-3,6.664141413E-3
1.833942090E-1,3.712499980E-3,3.712499980E-3,-3.712499980E-3,6.430238588E-3
1.857923320E-1,2.474999987E-3,4.949999973E-3,-2.474999987E-3,6.062487081E-3
1.881877950E-1,1.374999993E-3,3.712499980E-3,-2.474999987E-3,4.668929857E-3
1.905844090E-1,1.374999993E-4,2.474999987E-3,-1.374999993E-3,2.834635102E-3
1.929812550E-1,2.474999987E-3,2.474999987E-3,-1.374999993E-3,3.760568421E-3
1.953779490E-1,4.949999973E-3,0.000000000E0,-2.474999987E-3,5.534268214E-3
1.977745590E-1,3.712499980E-3,0.000000000E0,-1.374999993E-3,3.958949492E-3
2.001714030E-1,4.949999973E-3,2.474999987E-3,-3.712499980E-3,6.664141413E-3
2.025680970E-1,1.374999993E-3,1.237499993E-3,-2.474999987E-3,3.089928178E-3
2.049659410E-1,2.474999987E-3,2.474999987E-3,-1.374999993E-3,3.760568421E-3
2.073615590E-1,3.712499980E-3,0.000000000E0,-2.474999987E-3,4.461869679E-3
2.097582260E-1,3.712499980E-3,1.237499993E-3,-1.374999993E-3,4.147853338E-3
2.121548410E-1,3.712499980E-3,-2.337499987E-3,-1.374999993E-3,4.597519687E-3
2.145514570E-1,2.474999987E-3,-2.337499987E-3,-1.374999993E-3,3.671533209E-3
2.169483030E-1,2.474999987E-3,-1.099999994E-3,-2.474999987E-3,3.668957598E-3
2.193449970E-1,3.712499980E-3,-3.574999981E-3,-2.474999987E-3,5.717421263E-3
2.217416220E-1,1.374999993E-3,-2.337499987E-3,-1.374999993E-3,3.040584837E-3
2.241396970E-1,2.474999987E-3,0.000000000E0,-1.374999993E-3,2.831298273E-3
2.265351600E-1,2.474999987E-3,0.000000000E0,-1.374999993E-4,2.478816488E-3
2.289317730E-1,2.474999987E-3,-2.337499987E-3,-1.374999993E-4,3.407115697E-3
2.313286200E-1,1.374999993E-3,-2.337499987E-3,-1.374999993E-3,3.040584837E-3
2.337253050E-1,2.474999987E-3,-3.574999981E-3,-1.374999993E-3,4.560359062E-3
2.361219200E-1,3.712499980E-3,-7.287499961E-3,-2.474999987E-3,8.544936320E-3
2.385187640E-1,2.474999987E-3,-3.574999981E-3,-2.474999987E-3,5.003186458E-3
2.409153820E-1,1.374999993E-4,-4.812499974E-3,-3.712499980E-3,6.079614984E-3
2.433132260E-1,1.374999993E-4,-3.574999981E-3,-2.474999987E-3,4.350305282E-3
2.457089060E-1,1.374999993E-4,-3.574999981E-3,-1.374999993E-3,3.832773942E-3
2.481055200E-1,1.374999993E-4,-2.337499987E-3,-2.474999987E-3,3.407115697E-3
2.505022120E-1,-1.099999994E-3,-2.337499987E-3,-2.474999987E-3,3.577643234E-3
2.528988290E-1,1.374999993E-4,-2.337499987E-3,-2.474999987E-3,3.407115697E-3
2.552956740E-1,1.374999993E-4,-1.099999994E-3,-2.474999987E-3,2.711923887E-3
2.576923770E-1,-1.099999994E-3,-2.337499987E-3,-2.474999987E-3,3.577643234E-3
2.600889920E-1,-2.337499987E-3,-3.574999981E-3,-1.374999993E-3,4.487221416E-3
2.624870670E-1,-2.337499987E-3,0.000000000E0,-1.374999993E-3,2.711923887E-3
2.648825310E-1,-1.099999994E-3,-1.099999994E-3,-1.374999993E-4,1.561699787E-3
2.672791440E-1,-1.099999994E-3,-3.574999981E-3,-1.374999993E-3,3.985128584E-3
2.696760000E-1,-1.099999994E-3,-1.099999994E-3,-1.374999993E-3,2.076204458E-3
2.720726180E-1,-2.337499987E-3,-1.099999994E-3,-1.374999993E-3,2.926522024E-3
2.744693080E-1,-2.337499987E-3,0.000000000E0,-1.374999993E-3,2.711923887E-3
2.768659250E-1,-1.099999994E-3,-2.337499987E-3,-2.474999987E-3,3.577643234E-3
2.792627700E-1,-2.337499987E-3,0.000000000E0,-1.374999993E-4,2.341540613E-3
2.816606290E-1,1.374999993E-4,0.000000000E0,-1.374999993E-3,1.381857890E-3
2.840560920E-1,-1.099999994E-3,1.237499993E-3,-1.374999993E-3,2.152215417E-3
2.864529360E-1,1.374999993E-4,1.237499993E-3,-1.374999993E-4,1.252684610E-3
2.888496290E-1,-1.099999994E-3,1.237499993E-3,-2.474999987E-3,2.977756060E-3
2.912462460E-1,-1.099999994E-3,0.000000000E0,-1.374999993E-3,1.760859156E-3
2.936430950E-1,-1.099999994E-3,1.237499993E-3,-2.474999987E-3,2.977756060E-3
2.960397900E-1,-3.574999981E-3,0.000000000E0,-1.374999993E-3,3.830306755E-3
2.984364050E-1,1.374999993E-4,2.474999987E-3,-1.374999993E-3,2.834635102E-3
3.008344800E-1,-1.099999994E-3,1.237499993E-3,-1.374999993E-3,2.152215417E-3
3.032299430E-1,-3.574999981E-3,1.237499993E-3,-1.374999993E-4,3.785622451E-3
3.056265620E-1,-2.337499987E-3,1.237499993E-3,-1.374999993E-3,2.980928950E-3
3.080234080E-1,1.374999993E-4,1.237499993E-3,-1.374999993E-4,1.252684610E-3
3.104200250E-1,-1.099999994E-3,1.237499993E-3,-1.374999993E-3,2.152215417E-3
3.128167160E-1,-1.099999994E-3,1.237499993E-3,-1.374999993E-4,1.661418812E-3
3.152133330E-1,-2.337499987E-3,0.000000000E0,-1.374999993E-3,2.711923887E-3
3.176101620E-1,-2.337499987E-3,2.474999987E-3,-1.374999993E-3,3.671533209E-3
3.200080080E-1,-1.099999994E-3,0.000000000E0,-1.374999993E-3,1.760859156E-3
3.224034720E-1,-2.337499987E-3,3.712499980E-3,-1.374999993E-4,4.389244644E-3
3.248003160E-1,1.374999993E-4,1.237499993E-3,-1.374999993E-3,1.854976405E-3
3.271970080E-1,-1.099999994E-3,2.474999987E-3,-1.374999993E-3,3.037474263E-3
3.295936310E-1,1.374999993E-4,2.474999987E-3,-1.374999993E-4,2.482627123E-3
3.319904750E-1,1.374999993E-4,2.474999987E-3,1.099999994E-3,2.711923887E-3
3.343871690E-1,-1.099999994E-3,1.237499993E-3,1.099999994E-3,1.987814430E-3
3.367837850E-1,1.374999993E-4,1.237499993E-3,-1.374999993E-4,1.252684610E-3
3.391816290E-1,1.374999993E-3,0.000000000E0,-2.474999987E-3,2.831298273E-3
3.415772460E-1,1.374999993E-4,-1.099999994E-3,-1.374999993E-3,1.766219470E-3
3.439739370E-1,1.374999993E-4,0.000000000E0,-1.374999993E-4,1.944543638E-4
3.463707830E-1,1.374999993E-4,1.237499993E-3,-1.374999993E-3,1.854976405E-3
3.487674000E-1,1.374999993E-3,1.237499993E-3,-1.374999993E-3,2.304919997E-3
3.511640900E-1,1.374999993E-3,0.000000000E0,-1.374999993E-3,1.944543638E-3
3.535607320E-1,1.374999993E-4,1.237499993E-3,-1.374999993E-4,1.252684610E-3
3.559575760E-1,-1.099999994E-3,3.712499980E-3,-1.374999993E-3,4.108926997E-3
3.583554220E-1,1.374999993E-4,-1.099999994E-3,-1.374999993E-3,1.766219470E-3
3.607508860E-1,1.374999993E-4,-1.099999994E-3,-1.374999993E-4,1.117055275E-3
3.631477300E-1,-1.099999994E-3,-2.337499987E-3,-1.374999993E-3,2.926522024E-3
3.655443450E-1,1.374999993E-3,-1.099999994E-3,-1.374999993E-4,1.766219470E-3
3.679410380E-1,1.374999993E-3,-1.099999994E-3,-1.374999993E-4,1.766219470E-3
3.703378840E-1,1.374999993E-4,-2.337499987E-3,1.099999994E-3,2.587047048E-3
3.727345010E-1,1.374999993E-3,-2.337499987E-3,-1.374999993E-3,3.040584837E-3
3.751311910E-1,2.474999987E-3,-3.574999981E-3,-1.374999993E-3,4.560359062E-3
3.775290190E-1,1.374999993E-4,-3.574999981E-3,-1.374999993E-3,3.832773942E-3
3.799246360E-1,1.374999993E-4,-4.812499974E-3,-1.374999993E-3,5.006963873E-3
3.823213260E-1,1.374999993E-4,-3.574999981E-3,-1.374999993E-4,3.580284536E-3
3.847179420E-1,1.374999993E-3,-2.337499987E-3,-1.374999993E-4,2.715407413E-3
3.871147880E-1,1.374999993E-4,-3.574999981E-3,-1.374999993E-4,3.580284536E-3
3.895114870E-1,-1.099999994E-3,-3.574999981E-3,-1.374999993E-3,3.985128584E-3
3.919081030E-1,1.374999993E-3,-2.337499987E-3,-1.374999993E-4,2.715407413E-3
3.943049470E-1,1.374999993E-3,-3.574999981E-3,1.099999994E-3,3.985128584E-3
3.967027930E-1,1.374999993E-4,1.237499993E-3,1.099999994E-3,1.661418812E-3
3.990982560E-1,-1.099999994E-3,-3.574999981E-3,-1.374999993E-4,3.742930817E-3
4.014951110E-1,-1.099999994E-3,-1.099999994E-3,1.099999994E-3,1.905255878E-3
4.038917260E-1,1.374999993E-4,-2.337499987E-3,1.099999994E-3,2.587047048E-3
4.062884180E-1,1.374999993E-3,-2.337499987E-3,-1.374999993E-4,2.715407413E-3
4.086852640E-1,1.374999993E-3,-3.574999981E-3,1.099999994E-3,3.985128584E-3
4.110818820E-1,1.374999993E-4,-2.337499987E-3,2.337499987E-3,3.308582571E-3
4.134785670E-1,1.374999993E-4,-4.812499974E-3,2.337499987E-3,5.351912596E-3
4.158764130E-1,1.374999993E-4,-1.099999994E-3,1.099999994E-3,1.561699787E-3
4.182720310E-1,1.374999993E-4,-1.099999994E-3,2.337499987E-3,2.587047048E-3
4.206686440E-1,1.374999993E-4,-2.337499987E-3,2.337499987E-3,3.308582571E-3
4.230655670E-1,-1.099999994E-3,-2.337499987E-3,3.574999981E-3,4.410729082E-3
4.254622090E-1,-1.099999994E-3,3.712499980E-3,2.337499987E-3,4.522893131E-3
4.278588240E-1,-1.099999994E-3,-2.337499987E-3,2.337499987E-3,3.483936332E-3
4.302555140E-1,-1.099999994E-3,0.000000000E0,1.099999994E-3,1.555634910E-3
4.326523600E-1,-3.574999981E-3,1.099999994E-2,1.099999994E-3,1.161854653E-2
4.350502070E-1,-3.574999981E-3,7.424999960E-3,1.099999994E-3,8.313919007E-3
4.374456610E-1,-1.099999994E-3,0.000000000E0,1.099999994E-3,1.555634910E-3
4.398425050E-1,1.374999993E-4,1.237499993E-3,-1.374999993E-4,1.252684610E-3
4.422391210E-1,-1.099999994E-3,0.000000000E0,1.099999994E-3,1.555634910E-3
4.446358130E-1,-1.099999994E-3,2.474999987E-3,1.099999994E-3,2.923290083E-3
4.470326590E-1,1.374999993E-3,0.000000000E0,1.099999994E-3,1.760859156E-3
4.494292670E-1,1.374999993E-4,2.474999987E-3,1.099999994E-3,2.711923887E-3
4.518259570E-1,-1.099999994E-3,1.237499993E-3,1.099999994E-3,1.987814430E-3
4.542238030E-1,1.374999993E-4,1.237499993E-3,1.099999994E-3,1.661418812E-3
4.566194200E-1,1.374999993E-4,2.474999987E-3,1.099999994E-3,2.711923887E-3
4.590160340E-1,-1.099999994E-3,2.474999987E-3,2.337499987E-3,3.577643234E-3
4.614126970E-1,-1.099999994E-3,2.474999987E-3,1.099999994E-3,2.923290083E-3
4.638095430E-1,-1.099999994E-3,3.712499980E-3,1.099999994E-3,4.025252299E-3
4.662061610E-1,1.374999993E-4,3.712499980E-3,-1.374999993E-4,3.717589084E-3
4.686028510E-1,-1.099999994E-3,2.474999987E-3,-1.374999993E-4,2.711923887E-3
4.709996970E-1,1.374999993E-4,3.712499980E-3,1.099999994E-3,3.874475750E-3
4.733975380E-1,-1.099999994E-3,1.237499993E-3,1.099999994E-3,1.987814430E-3
4.757930020E-1,1.374999993E-4,3.712499980E-3,-1.374999993E-4,3.717589084E-3
4.781898460E-1,1.237499993E-3,2.474999987E-3,-1.374999993E-4,2.770548216E-3
4.805864610E-1,1.374999993E-4,3.712499980E-3,-1.374999993E-4,3.717589084E-3
4.829830770E-1,-1.099999994E-3,2.474999987E-3,2.337499987E-3,3.577643234E-3
4.853799950E-1,1.374999993E-4,1.237499993E-3,-1.237499993E-3,1.755482474E-3
4.877766120E-1,1.374999993E-4,1.374999993E-4,1.099999994E-3,1.117055275E-3
4.901732280E-1,-1.099999994E-3,1.374999993E-4,-1.374999993E-4,1.117055275E-3
4.925711490E-1,1.374999993E-4,1.237499993E-3,-1.374999993E-4,1.252684610E-3
4.949667660E-1,1.374999993E-4,1.237499993E-3,2.337499987E-3,2.648437025E-3
4.973633840E-1,1.237499993E-3,-1.099999994E-3,1.099999994E-3,1.987814430E-3
4.997600770E-1,1.374999993E-4,1.237499993E-3,1.099999994E-3,1.661418812E-3
5.021569230E-1,1.374999993E-4,1.374999993E-4,1.099999994E-3,1.117055275E-3
5.045535400E-1,1.374999993E-4,1.374999993E-4,-1.374999993E-4,2.381569848E-4
5.069502310E-1,1.374999993E-4,1.374999993E-4,1.099999994E-3,1.117055275E-3
5.093468820E-1,1.374999993E-4,-1.099999994E-3,1.099999994E-3,1.561699787E-3
5.117449570E-1,-1.099999994E-3,-1.099999994E-3,2.337499987E-3,2.807829440E-3
5.141404210E-1,1.374999993E-4,-1.099999994E-3,2.337499987E-3,2.587047048E-3
5.165370340E-1,1.237499993E-3,-1.099999994E-3,1.099999994E-3,1.987814430E-3
5.189338800E-1,-1.099999994E-3,1.374999993E-4,1.099999994E-3,1.561699787E-3
5.213304920E-1,-1.099999994E-3,-2.337499987E-3,1.099999994E-3,2.807829440E-3
5.237271830E-1,-1.099999994E-3,1.374999993E-4,1.099999994E-3,1.561699787E-3
5.261240290E-1,1.374999993E-4,-3.574999981E-3,1.099999994E-3,3.742930817E-3
5.285206460E-1,1.374999993E-4,1.374999993E-4,1.099999994E-3,1.117055275E-3
5.309185670E-1,-1.099999994E-3,-3.574999981E-3,2.337499987E-3,4.410729082E-3
5.333141850E-1,1.237499993E-3,-1.099999994E-3,-1.374999993E-4,1.661418812E-3
5.357107980E-1,1.374999993E-4,-4.812499974E-3,2.337499987E-3,5.351912596E-3
5.381074900E-1,1.237499993E-3,-1.099999994E-3,2.337499987E-3,2.864491650E-3
5.405043370E-1,1.237499993E-3,-3.574999981E-3,2.337499987E-3,4.447014424E-3
5.429009540E-1,1.237499993E-3,-2.337499987E-3,-1.374999993E-4,2.648437025E-3
5.452976440E-1,1.237499993E-3,-2.337499987E-3,1.099999994E-3,2.864491650E-3
5.476942620E-1,-1.099999994E-3,-1.099999994E-3,1.099999994E-3,1.905255878E-3
5.500923370E-1,1.237499993E-3,-2.337499987E-3,1.099999994E-3,2.864491650E-3
5.524877230E-1,1.237499993E-3,1.374999993E-4,-1.374999993E-4,1.252684610E-3
5.548844140E-1,1.237499993E-3,-4.812499974E-3,1.099999994E-3,5.089357741E-3
5.572812600E-1,1.237499993E-3,-4.812499974E-3,2.337499987E-3,5.491399496E-3
5.596778770E-1,1.374999993E-4,-2.337499987E-3,2.337499987E-3,3.308582571E-3
5.620745670E-1,1.374999993E-4,-1.099999994E-3,2.337499987E-3,2.587047048E-3
5.644714140E-1,1.374999993E-4,-1.099999994E-3,1.099999994E-3,1.561699787E-3
5.668680310E-1,1.237499993E-3,-1.099999994E-3,1.099999994E-3,1.987814430E-3
5.692659280E-1,1.237499993E-3,-2.337499987E-3,1.099999994E-3,2.864491650E-3
5.716615450E-1,1.374999993E-4,-1.099999994E-3,2.337499987E-3,2.587047048E-3
5.740581590E-1,1.374999993E-4,2.474999987E-3,1.099999994E-3,2.711923887E-3
5.764548510E-1,2.474999987E-3,1.237499993E-3,1.099999994E-3,2.977756060E-3
5.788516970E-1,2.474999987E-3,1.237499993E-3,1.099999994E-3,2.977756060E-3
5.812483150E-1,1.374999993E-4,1.374999993E-4,1.099999994E-3,1.117055275E-3
5.836449300E-1,1.237499993E-3,1.237499993E-3,2.337499987E-3,2.920054564E-3
5.860416200E-1,1.237499993E-3,1.374999993E-4,3.574999981E-3,3.785622451E-3
5.884394670E-1,1.237499993E-3,1.374999993E-4,2.337499987E-3,2.648437025E-3
5.908350840E-1,1.374999993E-4,1.237499993E-3,2.337499987E-3,2.648437025E-3
5.932317830E-1,1.374999993E-4,1.237499993E-3,2.337499987E-3,2.648437025E-3
5.956286290E-1,1.237499993E-3,-2.337499987E-3,2.337499987E-3,3.529761835E-3
5.980252470E-1,1.374999993E-4,1.237499993E-3,2.337499987E-3,2.648437025E-3
6.004219370E-1,1.374999993E-4,-1.099999994E-3,2.337499987E-3,2.587047048E-3
6.028187830E-1,-1.099999994E-3,1.374999993E-4,1.099999994E-3,1.561699787E-3
6.052153870E-1,-1.099999994E-3,1.374999993E-4,2.337499987E-3,2.587047048E-3
6.076132310E-1,1.374999993E-4,1.237499993E-3,2.337499987E-3,2.648437025E-3
6.100086940E-1,-1.099999994E-3,1.237499993E-3,-1.374999993E-4,1.661418812E-3
6.124055390E-1,1.374999993E-4,2.474999987E-3,2.337499987E-3,3.407115697E-3
6.148021540E-1,1.237499993E-3,2.474999987E-3,3.574999981E-3,4.520802587E-3
6.171988460E-1,1.237499993E-3,2.474999987E-3,1.099999994E-3,2.977756060E-3
6.195956920E-1,1.237499993E-3,1.237499993E-3,3.574999981E-3,3.980381556E-3
6.219923100E-1,1.374999993E-4,1.237499993E-3,1.099999994E-3,1.661418812E-3
6.243890000E-1,-1.099999994E-3,1.374999993E-4,1.099999994E-3,1.561699787E-3
6.267868460E-1,1.374999993E-4,1.374999993E-4,1.099999994E-3,1.117055275E-3
6.291824740E-1,-1.099999994E-3,1.237499993E-3,1.099999994E-3,1.987814430E-3
6.315791640E-1,1.237499993E-3,1.237499993E-3,3.574999981E-3,3.980381556E-3
6.339760100E-1,1.237499993E-3,-3.574999981E-3,1.099999994E-3,3.939800894E-3
6.363726280E-1,1.374999993E-4,-1.099999994E-3,2.337499987E-3,2.587047048E-3
6.387693180E-1,-1.099999994E-3,1.374999993E-4,2.337499987E-3,2.587047048E-3
6.411661640E-1,1.374999993E-4,-3.574999981E-3,1.099999994E-3,3.742930817E-3
6.435627810E-1,-1.099999994E-3,2.474999987E-3,2.337499987E-3,3.577643234E-3
6.459606260E-1,-3.574999981E-3,1.237499993E-3,1.099999994E-3,3.939800894E-3
6.483560890E-1,-3.574999981E-3,8.662499487E-3,2.337499987E-3,9.658334661E-3
6.507529330E-1,1.374999993E-4,1.237499993E-3,1.099999994E-3,1.661418812E-3
6.531495730E-1,-3.574999981E-3,-1.099999994E-3,-1.374999993E-4,3.742930817E-3
6.555462650E-1,1.374999993E-4,1.237499993E-3,1.099999994E-3,1.661418812E-3
6.579431110E-1,-1.099999994E-3,-2.337499987E-3,1.099999994E-3,2.807829440E-3
6.603397290E-1,-1.099999994E-3,1.374999993E-4,1.099999994E-3,1.561699787E-3
6.627364190E-1,-1.099999994E-3,-3.574999981E-3,2.337499987E-3,4.410729082E-3
6.651342550E-1,1.374999993E-4,-1.099999994E-3,2.337499987E-3,2.587047048E-3
6.675298720E-1,1.374999993E-4,-7.287499961E-3,1.099999994E-3,7.371333795E-3
6.699265630E-1,1.237499993E-3,-9.762499481E-3,-1.374999993E-4,9.841580595E-3
6.723231780E-1,1.237499993E-3,-6.049999967E-3,1.099999994E-3,6.272472066E-3
6.747200240E-1,-1.099999994E-3,-9.762499481E-3,1.099999994E-3,9.885666194E-3
6.771166420E-1,-1.099999994E-3,-1.099999994E-3,1.099999994E-3,1.905255878E-3
6.795133320E-1,-2.337499987E-3,-1.099999994E-3,2.337499987E-3,3.483936332E-3
6.819101780E-1,-2.337499987E-3,3.712499980E-3,1.099999994E-3,4.522893131E-3
6.843080240E-1,1.374999993E-4,2.474999987E-3,2.337499987E-3,3.407115697E-3
6.867034880E-1,-2.337499987E-3,8.662499487E-3,2.337499987E-3,9.271823432E-3
6.891003080E-1,-3.574999981E-3,3.712499980E-3,1.099999994E-3,5.270036143E-3
6.914969230E-1,1.374999993E-4,4.949999973E-3,1.099999994E-3,5.072613328E-3
6.938936160E-1,-1.099999994E-3,3.712499980E-3,2.337499987E-3,4.522893131E-3
6.962902330E-1,-1.099999994E-3,-2.337499987E-3,2.337499987E-3,3.483936332E-3
6.986870770E-1,1.237499993E-3,1.237499993E-3,2.337499987E-3,2.920054564E-3
7.010836470E-1,2.474999987E-3,-3.574999981E-3,2.337499987E-3,4.936613818E-3
7.034815680E-1,1.374999993E-4,-2.337499987E-3,1.099999994E-3,2.587047048E-3
7.058771850E-1,1.237499993E-3,-9.762499481E-3,1.099999994E-3,9.901909025E-3
7.082737990E-1,2.474999987E-3,1.237499993E-3,1.099999994E-3,2.977756060E-3
7.106704910E-1,1.237499993E-3,-4.812499974E-3,1.099999994E-3,5.089357741E-3
7.130673320E-1,1.237499993E-3,1.237499993E-3,1.099999994E-3,2.067078241E-3
7.154639490E-1,3.712499980E-3,-2.337499987E-3,1.099999994E-3,4.522893131E-3
7.178606400E-1,1.237499993E-3,1.374999993E-4,1.099999994E-3,1.661418812E-3
7.202574860E-1,1.237499993E-3,-1.099999994E-3,1.099999994E-3,1.987814430E-3
7.226553320E-1,1.237499993E-3,1.374999993E-4,-1.374999993E-4,1.252684610E-3
7.250507860E-1,1.237499993E-3,1.374999993E-4,-1.374999993E-4,1.252684610E-3
7.274476300E-1,1.237499993E-3,1.237499993E-3,1.099999994E-3,2.067078241E-3
7.298442450E-1,1.374999993E-4,1.374999993E-4,2.337499987E-3,2.345574277E-3
7.322408600E-1,1.237499993E-3,-1.099999994E-3,3.574999981E-3,3.939800894E-3
7.346375530E-1,3.712499980E-3,1.374999993E-4,1.099999994E-3,3.874475750E-3
7.370343750E-1,2.474999987E-3,1.374999993E-4,2.337499987E-3,3.407115697E-3
7.394309920E-1,1.237499993E-3,1.374999993E-4,1.099999994E-3,1.661418812E-3
7.418289130E-1,2.474999987E-3,-1.099999994E-3,1.099999994E-3,2.923290083E-3
7.442245310E-1,1.237499993E-3,1.374999993E-4,2.337499987E-3,2.648437025E-3
7.466211440E-1,1.374999993E-4,1.374999993E-4,2.337499987E-3,2.345574277E-3
7.490178470E-1,1.237499993E-3,1.374999993E-4,2.337499987E-3,2.648437025E-3
7.514146930E-1,-1.099999994E-3,1.237499993E-3,1.099999994E-3,1.987814430E-3
7.538113100E-1,1.374999993E-4,2.474999987E-3,1.099999994E-3,2.711923887E-3
7.562080000E-1,-1.099999994E-3,1.237499993E-3,2.337499987E-3,2.864491650E-3
7.586046180E-1,1.374999993E-4,1.237499993E-3,-1.374999993E-4,1.252684610E-3
7.610024710E-1,1.374999993E-4,-1.099999994E-3,-1.374999993E-4,1.117055275E-3
7.633981650E-1,1.374999993E-4,1.237499993E-3,1.099999994E-3,1.661418812E-3
7.657947790E-1,1.374999993E-4,-1.099999994E-3,1.099999994E-3,1.561699787E-3
7.681916250E-1,1.374999993E-4,1.237499993E-3,2.337499987E-3,2.648437025E-3
7.705882420E-1,1.374999993E-4,-1.099999994E-3,1.099999994E-3,1.561699787E-3
7.729849330E-1,1.237499993E-3,2.474999987E-3,-1.374999993E-4,2.770548216E-3
7.753817790E-1,1.374999993E-4,1.374999993E-4,1.099999994E-3,1.117055275E-3
7.777783960E-1,-1.099999994E-3,1.237499993E-3,1.099999994E-3,1.987814430E-3
7.801763170E-1,-2.337499987E-3,1.374999993E-4,1.099999994E-3,2.587047048E-3
7.825719350E-1,-2.337499987E-3,1.374999993E-4,-1.237499993E-3,2.648437025E-3
7.849685390E-1,-1.099999994E-3,1.374999993E-4,1.099999994E-3,1.561699787E-3
7.873652310E-1,-2.337499987E-3,-1.099999994E-3,1.099999994E-3,2.807829440E-3
7.897620770E-1,1.374999993E-4,-1.099999994E-3,2.337499987E-3,2.587047048E-3
7.921586950E-1,-1.099999994E-3,1.374999993E-4,1.099999994E-3,1.561699787E-3
7.945553850E-1,1.374999993E-4,1.374999993E-4,2.337499987E-3,2.345574277E-3
7.969520010E-1,-2.337499987E-3,1.374999993E-4,1.099999994E-3,2.587047048E-3
7.993498460E-1,1.374999993E-4,-1.099999994E-3,1.099999994E-3,1.561699787E-3
8.017454630E-1,-1.099999994E-3,-1.099999994E-3,1.099999994E-3,1.905255878E-3
8.041421530E-1,-2.337499987E-3,1.237499993E-3,2.337499987E-3,3.529761835E-3
8.065390000E-1,-1.099999994E-3,1.237499993E-3,2.337499987E-3,2.864491650E-3
8.089356030E-1,-1.099999994E-3,1.374999993E-4,1.099999994E-3,1.561699787E-3
8.113322930E-1,-2.337499987E-3,-1.099999994E-3,-1.374999993E-4,2.587047048E-3
8.137291390E-1,-2.337499987E-3,-1.099999994E-3,1.099999994E-3,2.807829440E-3
8.161257570E-1,-1.099999994E-3,-1.099999994E-3,1.099999994E-3,1.905255878E-3
8.185236780E-1,-2.337499987E-3,1.374999993E-4,1.099999994E-3,2.587047048E-3
8.209192950E-1,-1.099999994E-3,1.374999993E-4,1.099999994E-3,1.561699787E-3
8.233159090E-1,-1.099999994E-3,-1.099999994E-3,-1.374999993E-4,1.561699787E-3
8.257126010E-1,-1.099999994E-3,-1.099999994E-3,1.099999994E-3,1.905255878E-3
8.281094470E-1,-1.099999994E-3,1.374999993E-4,-1.374999993E-4,1.117055275E-3
8.305060640E-1,-1.099999994E-3,1.374999993E-4,1.099999994E-3,1.561699787E-3
8.329026700E-1,-1.099999994E-3,-1.099999994E-3,-1.374999993E-4,1.561699787E-3
8.352993600E-1,-1.099999994E-3,1.237499993E-3,2.337499987E-3,2.864491650E-3
8.376972060E-1,1.374999993E-4,1.237499993E-3,2.337499987E-3,2.648437025E-3
8.400928240E-1,-1.099999994E-3,-1.099999994E-3,2.337499987E-3,2.807829440E-3
8.424895140E-1,-1.099999994E-3,1.374999993E-4,1.099999994E-3,1.561699787E-3
8.448863460E-1,1.374999993E-4,-1.099999994E-3,2.337499987E-3,2.587047048E-3
8.472829640E-1,1.374999993E-4,-1.099999994E-3,1.099999994E-3,1.561699787E-3
8.496796540E-1,1.237499993E-3,-2.337499987E-3,1.099999994E-3,2.864491650E-3
8.520762710E-1,1.237499993E-3,1.374999993E-4,-1.374999993E-4,1.252684610E-3
8.544731150E-1,1.374999993E-4,-1.099999994E-3,1.099999994E-3,1.561699787E-3
8.568709520E-1,2.474999987E-3,1.374999993E-4,1.099999994E-3,2.711923887E-3
8.592664150E-1,1.237499993E-3,-1.099999994E-3,-1.374999993E-4,1.661418812E-3
8.616632590E-1,1.374999993E-4,1.237499993E-3,3.574999981E-3,3.785622451E-3
8.640599520E-1,1.374999993E-4,1.237499993E-3,1.099999994E-3,1.661418812E-3
8.664565690E-1,1.237499993E-3,1.237499993E-3,1.099999994E-3,2.067078241E-3
8.688534130E-1,1.237499993E-3,1.237499993E-3,-1.374999993E-4,1.755482474E-3
8.712500310E-1,1.237499993E-3,1.374999993E-4,1.099999994E-3,1.661418812E-3
8.736467210E-1,2.474999987E-3,-1.099999994E-3,1.099999994E-3,2.923290083E-3
8.760445670E-1,2.474999987E-3,2.474999987E-3,-1.374999993E-4,3.502878262E-3
8.784401840E-1,1.374999993E-4,2.474999987E-3,1.099999994E-3,2.711923887E-3
8.808369040E-1,2.474999987E-3,1.237499993E-3,-1.374999993E-4,2.770548216E-3
8.832337500E-1,1.237499993E-3,-1.099999994E-3,2.337499987E-3,2.864491650E-3
8.856303670E-1,3.712499980E-3,-3.574999981E-3,2.337499987E-3,5.659256767E-3
8.880270580E-1,1.237499993E-3,-1.099999994E-3,1.099999994E-3,1.987814430E-3
8.904236750E-1,1.237499993E-3,1.374999993E-4,2.337499987E-3,2.648437025E-3
8.928205380E-1,1.237499993E-3,1.374999993E-4,1.099999994E-3,1.661418812E-3
8.952183840E-1,1.237499993E-3,1.374999993E-4,1.099999994E-3,1.661418812E-3
8.976138480E-1,1.237499993E-3,2.474999987E-3,1.099999994E-3,2.977756060E-3
9.000106920E-1,1.237499993E-3,1.374999993E-4,-1.374999993E-4,1.252684610E-3
9.024073070E-1,2.474999987E-3,1.237499993E-3,2.337499987E-3,3.622283445E-3
9.048040100E-1,1.374999993E-4,1.374999993E-4,1.099999994E-3,1.117055275E-3
9.072008560E-1,1.374999993E-4,1.237499993E-3,2.337499987E-3,2.648437025E-3
9.095974730E-1,1.237499993E-3,-1.099999994E-3,2.337499987E-3,2.864491650E-3
9.119941640E-1,2.474999987E-3,1.237499993E-3,1.099999994E-3,2.977756060E-3
9.143920100E-1,1.237499993E-3,1.237499993E-3,2.337499987E-3,2.920054564E-3
9.167876360E-1,1.374999993E-4,1.237499993E-3,-1.374999993E-4,1.252684610E-3
9.191843260E-1,-1.099999994E-3,1.374999993E-4,1.099999994E-3,1.561699787E-3
9.215809420E-1,1.374999993E-4,1.237499993E-3,-1.374999993E-4,1.252684610E-3
9.239777880E-1,1.374999993E-4,1.374999993E-4,1.099999994E-3,1.117055275E-3
9.263744050E-1,1.374999993E-4,1.374999993E-4,-1.374999993E-4,2.381569848E-4
9.287711060E-1,1.374999993E-4,-2.337499987E-3,-1.237499993E-3,2.648437025E-3
9.311679520E-1,-1.099999994E-3,-1.099999994E-3,1.099999994E-3,1.905255878E-3
9.335657980E-1,-1.099999994E-3,1.374999993E-4,1.099999994E-3,1.561699787E-3
9.359612620E-1,1.374999993E-4,2.474999987E-3,1.099999994E-3,2.711923887E-3
9.383578750E-1,-2.337499987E-3,1.374999993E-4,2.337499987E-3,3.308582571E-3
9.407547160E-1,-1.099999994E-3,-1.099999994E-3,-1.237499993E-3,1.987814430E-3
9.431514100E-1,1.374999993E-4,1.374999993E-4,-1.374999993E-4,2.381569848E-4
9.455480260E-1,-2.337499987E-3,1.237499993E-3,-1.374999993E-4,2.648437025E-3
9.479448700E-1,1.374999993E-4,-1.099999994E-3,1.099999994E-3,1.561699787E-3
9.503415640E-1,-1.099999994E-3,1.374999993E-4,-1.374999993E-4,1.117055275E-3
9.527394180E-1,-1.099999994E-3,1.374999993E-4,1.099999994E-3,1.561699787E-3
9.551350360E-1,-1.099999994E-3,-1.099999994E-3,1.099999994E-3,1.905255878E-3
9.575317260E-1,-2.337499987E-3,1.237499993E-3,-1.374999993E-4,2.648437025E-3
9.599283420E-1,-1.099999994E-3,1.374999993E-4,1.099999994E-3,1.561699787E-3
9.623251880E-1,-1.099999994E-3,-1.099999994E-3,1.099999994E-3,1.905255878E-3
9.647217890E-1,-1.099999994E-3,1.237499993E-3,1.099999994E-3,1.987814430E-3
9.671184790E-1,-1.099999994E-3,1.374999993E-4,1.099999994E-3,1.561699787E-3
9.695150970E-1,-1.099999994E-3,1.374999993E-4,-1.237499993E-3,1.661418812E-3
9.719131720E-1,1.374999993E-4,1.237499993E-3,-1.374999993E-4,1.252684610E-3
9.743086350E-1,-1.099999994E-3,2.474999987E-3,-1.374999993E-4,2.711923887E-3
9.767052640E-1,-1.099999994E-3,0.000000000E0,1.099999994E-3,1.555634910E-3
9.791021100E-1,-2.337499987E-3,0.000000000E0,2.337499987E-3,3.305724184E-3
9.814988040E-1,-1.099999994E-3,-1.099999994E-3,1.099999994E-3,1.905255878E-3
9.838954200E-1,1.374999993E-4,0.000000000E0,1.099999994E-3,1.108560434E-3
9.862922640E-1,1.374999993E-4,1.237499993E-3,-1.374999993E-4,1.252684610E-3
9.886889240E-1,1.374999993E-3,1.237499993E-3,1.099999994E-3,2.152215417E-3
9.910868450E-1,1.374999993E-4,1.237499993E-3,-1.374999993E-4,1.252684610E-3
9.934824630E-1,1.374999993E-4,-1.099999994E-3,1.099999994E-3,1.561699787E-3
9.958790760E-1,1.374999993E-4,-2.337499987E-3,1.099999994E-3,2.587047048E-3
9.982757680E-1,1.374999993E-4,0.000000000E0,2.337499987E-3,2.341540613E-3
1.000672604E0,1.374999993E-4,-1.099999994E-3,1.099999994E-3,1.561699787E-3
1.003069222E0,1.374999993E-4,0.000000000E0,-1.374999993E-4,1.944543638E-4
1.005465912E0,1.374999993E-4,0.000000000E0,-1.374999993E-4,1.944543638E-4
1.007862758E0,-1.099999994E-3,1.237499993E-3,-1.374999993E-4,1.661418812E-3
1.010260374E0,1.374999993E-4,0.000000000E0,1.099999994E-3,1.108560434E-3
1.012656068E0,1.374999993E-3,1.237499993E-3,1.099999994E-3,2.152215417E-3
1.015052681E0,1.374999993E-3,0.000000000E0,1.099999994E-3,1.760859156E-3
1.017449528E0,-1.099999994E-3,1.237499993E-3,1.099999994E-3,1.987814430E-3
1.019846145E0,-1.099999994E-3,2.474999987E-3,1.099999994E-3,2.923290083E-3
1.022242835E0,1.374999993E-4,1.237499993E-3,1.099999994E-3,1.661418812E-3
1.024639701E0,1.374999993E-4,0.000000000E0,-1.374999993E-4,1.944543638E-4
1.027036319E0,1.374999993E-3,1.237499993E-3,1.099999994E-3,2.152215417E-3
1.029434163E0,2.474999987E-3,1.237499993E-3,-1.374999993E-3,3.089928178E-3
1.031829857E0,1.374999993E-3,-1.099999994E-3,-1.374999993E-4,1.766219470E-3
1.034226471E0,2.474999987E-3,0.000000000E0,-1.374999993E-4,2.478816488E-3
1.036623177E0,1.374999993E-3,-2.337499987E-3,-1.374999993E-4,2.715407413E-3
1.039019794E0,1.374999993E-3,1.237499993E-3,-1.374999993E-4,1.854976405E-3
1.041416639E0,1.374999993E-3,1.237499993E-3,-1.374999993E-4,1.854976405E-3
1.043813333E0,2.474999987E-3,1.237499993E-3,-1.374999993E-4,2.770548216E-3
1.046209948E0,2.474999987E-3,-1.099999994E-3,-1.374999993E-4,2.711923887E-3
1.048607792E0,1.374999993E-3,-1.099999994E-3,1.099999994E-3,2.076204458E-3
1.051003410E0,1.374999993E-3,-2.337499987E-3,-1.374999993E-4,2.715407413E-3
1.053400100E0,1.374999993E-3,1.237499993E-3,-1.374999993E-4,1.854976405E-3
1.055796946E0,2.474999987E-3,-1.099999994E-3,-1.374999993E-3,3.037474263E-3
1.058193564E0,1.374999993E-3,0.000000000E0,-1.374999993E-3,1.944543638E-3
1.060590264E0,1.374999993E-3,-1.099999994E-3,-1.374999993E-4,1.766219470E-3
1.062986881E0,1.374999993E-3,0.000000000E0,-1.374999993E-3,1.944543638E-3
1.065383726E0,1.374999993E-3,0.000000000E0,-1.374999993E-4,1.381857890E-3
1.067781572E0,1.374999993E-4,-1.099999994E-3,1.099999994E-3,1.561699787E-3
1.070177035E0,1.374999993E-3,0.000000000E0,-1.374999993E-4,1.381857890E-3
1.072573859E0,1.374999993E-4,1.237499993E-3,1.099999994E-3,1.661418812E-3
1.074970552E0,1.374999993E-3,-3.574999981E-3,-2.474999987E-3,4.560359062E-3
1.077367169E0,1.374999993E-3,-1.099999994E-3,-1.374999993E-4,1.766219470E-3
1.079764013E0,-1.099999994E-3,-1.099999994E-3,-1.374999993E-4,1.561699787E-3
1.082160631E0,1.374999993E-3,-1.099999994E-3,-1.374999993E-3,2.234110549E-3
1.084557336E0,-1.099999994E-3,-2.337499987E-3,-1.374999993E-4,2.587047048E-3
1.086955182E0,-1.099999994E-3,1.237499993E-3,-1.374999993E-4,1.661418812E-3
1.089350799E0,-1.099999994E-3,-1.099999994E-3,-1.374999993E-4,1.561699787E-3
1.091747490E0,1.374999993E-3,0.000000000E0,-1.374999993E-3,1.944543638E-3
1.094144336E0,1.374999993E-3,-2.337499987E-3,-1.374999993E-4,2.715407413E-3
1.096540943E0,1.374999993E-4,-1.099999994E-3,1.099999994E-3,1.561699787E-3
1.098937634E0,-1.099999994E-3,0.000000000E0,1.099999994E-3,1.555634910E-3
1.101334251E0,-1.099999994E-3,-1.099999994E-3,-1.374999993E-4,1.561699787E-3
1.103731095E0,-2.337499987E-3,-1.099999994E-3,1.099999994E-3,2.807829440E-3
1.106128941E0,-1.099999994E-3,0.000000000E0,1.099999994E-3,1.555634910E-3
1.108524415E0,-2.337499987E-3,-1.099999994E-3,-1.374999993E-4,2.587047048E-3
1.110921259E0,-2.337499987E-3,0.000000000E0,-1.374999993E-3,2.711923887E-3
1.113317874E0,-3.574999981E-3,0.000000000E0,1.099999994E-3,3.740404370E-3
1.115714567E0,-2.337499987E-3,0.000000000E0,-1.374999993E-4,2.341540613E-3
1.118111184E0,-1.099999994E-3,-1.099999994E-3,-1.374999993E-3,2.076204458E-3
1.120508066E0,-2.337499987E-3,1.237499993E-3,1.099999994E-3,2.864491650E-3
1.122904761E0,-1.099999994E-3,-1.099999994E-3,-1.374999993E-4,1.561699787E-3
1.125302605E0,-1.099999994E-3,0.000000000E0,-1.374999993E-4,1.108560434E-3
1.127698222E0,-1.099999994E-3,0.000000000E0,-1.374999993E-4,1.108560434E-3
1.130094913E0,-2.337499987E-3,1.237499993E-3,-1.374999993E-4,2.648437025E-3
1.132491542E0,-1.099999994E-3,0.000000000E0,1.099999994E-3,1.555634910E-3
1.134888388E0,-1.099999994E-3,-1.099999994E-3,-2.474999987E-3,2.923290083E-3
1.137285005E0,-1.099999994E-3,0.000000000E0,-1.374999993E-4,1.108560434E-3
1.139681696E0,1.374999993E-4,0.000000000E0,-1.374999993E-4,1.944543638E-4
1.142078542E0,1.374999993E-4,2.474999987E-3,1.099999994E-3,2.711923887E-3
1.144476384E0,-1.099999994E-3,1.237499993E-3,1.099999994E-3,1.987814430E-3
1.146871848E0,-1.099999994E-3,1.237499993E-3,-1.374999993E-3,2.152215417E-3
1.149268692E0,1.374999993E-3,1.237499993E-3,-1.374999993E-4,1.854976405E-3
1.151665307E0,1.374999993E-4,1.237499993E-3,-1.374999993E-4,1.252684610E-3
1.154061999E0,1.374999993E-4,-1.099999994E-3,-1.374999993E-4,1.117055275E-3
1.156458621E0,-1.099999994E-3,2.474999987E-3,-1.374999993E-3,3.037474263E-3
1.158855465E0,1.374999993E-4,1.237499993E-3,-1.374999993E-4,1.252684610E-3
1.161252159E0,1.374999993E-4,1.237499993E-3,-1.374999993E-4,1.252684610E-3
1.163650004E0,1.374999993E-4,0.000000000E0,-1.374999993E-4,1.944543638E-4
1.166045621E0,1.374999993E-3,3.712499980E-3,-1.374999993E-4,3.961336559E-3
1.168442311E0,1.374999993E-3,0.000000000E0,-1.374999993E-3,1.944543638E-3
1.170838927E0,2.474999987E-3,2.474999987E-3,-2.474999987E-3,4.286825726E-3
1.173235773E0,1.374999993E-3,0.000000000E0,-1.374999993E-3,1.944543638E-3
1.175632390E0,1.374999993E-4,1.237499993E-3,-1.374999993E-3,1.854976405E-3
1.178029071E0,1.374999993E-4,0.000000000E0,1.099999994E-3,1.108560434E-3
1.180425918E0,1.374999993E-4,0.000000000E0,-1.374999993E-4,1.944543638E-4
1.182823764E0,1.374999993E-3,0.000000000E0,-1.374999993E-4,1.381857890E-3
1.185219227E0,2.474999987E-3,2.474999987E-3,-1.374999993E-4,3.502878262E-3
1.187615841E0,1.374999993E-3,1.237499993E-3,-1.374999993E-4,1.854976405E-3
1.190012696E0,1.374999993E-3,0.000000000E0,-1.374999993E-4,1.381857890E-3
1.192409390E0,1.374999993E-4,0.000000000E0,-1.374999993E-4,1.944543638E-4
1.194806006E0,1.374999993E-4,2.474999987E-3,-1.374999993E-3,2.834635102E-3
1.197202850E0,1.374999993E-4,2.474999987E-3,-1.374999993E-4,2.482627123E-3
1.199599467E0,1.374999993E-3,0.000000000E0,-1.374999993E-4,1.381857890E-3
1.201997412E0,-1.099999994E-3,-2.337499987E-3,-1.374999993E-4,2.587047048E-3
1.204393030E0,1.374999993E-4,1.237499993E-3,1.099999994E-3,1.661418812E-3
1.206789643E0,1.374999993E-3,-1.099999994E-3,-1.374999993E-3,2.234110549E-3
1.209186335E0,1.374999993E-3,0.000000000E0,-2.474999987E-3,2.831298273E-3
1.211583181E0,1.374999993E-4,-1.099999994E-3,1.099999994E-3,1.561699787E-3
1.213979794E0,1.374999993E-4,-1.099999994E-3,1.099999994E-3,1.561699787E-3
1.216376484E0,1.374999993E-4,-2.337499987E-3,-1.374999993E-3,2.715407413E-3
1.218773102E0,1.374999993E-3,-1.099999994E-3,1.099999994E-3,2.076204458E-3
1.221170946E0,1.374999993E-4,-2.337499987E-3,1.099999994E-3,2.587047048E-3
1.223566640E0,1.374999993E-4,-1.099999994E-3,-1.374999993E-4,1.117055275E-3
1.225963234E0,-1.099999994E-3,-1.099999994E-3,-1.374999993E-4,1.561699787E-3
1.228360081E0,-1.099999994E-3,-1.099999994E-3,-1.374999993E-3,2.076204458E-3
1.230756698E0,1.374999993E-4,-1.099999994E-3,-1.374999993E-3,1.766219470E-3
1.233153388E0,1.374999993E-3,0.000000000E0,-1.374999993E-4,1.381857890E-3
1.235550234E0,-1.099999994E-3,3.712499980E-3,-1.374999993E-4,3.874475750E-3
1.237946867E0,-1.099999994E-3,0.000000000E0,-1.374999993E-4,1.108560434E-3
1.240344788E0,-1.099999994E-3,-2.337499987E-3,-1.374999993E-4,2.587047048E-3
1.242740405E0,-1.099999994E-3,-1.099999994E-3,-1.374999993E-3,2.076204458E-3
1.245137019E0,1.374999993E-4,-1.099999994E-3,-1.374999993E-3,1.766219470E-3
1.247533711E0,1.374999993E-4,-1.099999994E-3,-1.374999993E-3,1.766219470E-3
1.249930542E0,-2.337499987E-3,-1.099999994E-3,-1.374999993E-4,2.587047048E-3
1.252327160E0,-2.337499987E-3,-1.099999994E-3,-1.374999993E-4,2.587047048E-3
1.254723850E0,-1.099999994E-3,0.000000000E0,-1.374999993E-3,1.760859156E-3
1.257120467E0,-1.099999994E-3,0.000000000E0,-1.374999993E-4,1.108560434E-3
1.259518311E0,1.374999993E-4,0.000000000E0,-1.374999993E-4,1.944543638E-4
1.261913934E0,-1.099999994E-3,0.000000000E0,1.099999994E-3,1.555634910E-3
1.264310624E0,1.374999993E-4,-1.099999994E-3,-1.374999993E-4,1.117055275E-3
1.266707470E0,1.374999993E-4,0.000000000E0,-1.374999993E-4,1.944543638E-4
1.269104088E0,-1.099999994E-3,0.000000000E0,-1.374999993E-4,1.108560434E-3
1.271500778E0,1.374999993E-4,0.000000000E0,-1.374999993E-3,1.381857890E-3
1.273897619E0,1.374999993E-4,-1.099999994E-3,-1.374999993E-4,1.117055275E-3
1.276294237E0,1.374999993E-4,0.000000000E0,-1.374999993E-4,1.944543638E-4
1.278692081E0,1.374999993E-3,-1.099999994E-3,-1.374999993E-3,2.234110549E-3
1.281087544E0,1.374999993E-4,0.000000000E0,1.099999994E-3,1.108560434E-3
1.283484388E0,-1.099999994E-3,-1.099999994E-3,-1.374999993E-4,1.561699787E-3
1.285881076E0,-2.337499987E-3,0.000000000E0,-1.374999993E-4,2.341540613E-3
1.288277693E0,-1.099999994E-3,-1.099999994E-3,-1.374999993E-3,2.076204458E-3
1.290674537E0,-1.099999994E-3,-1.099999994E-3,-1.374999993E-4,1.561699787E-3
1.293071155E0,1.374999993E-4,1.237499993E-3,1.099999994E-3,1.661418812E-3
1.295467845E0,1.374999993E-4,0.000000000E0,-1.374999993E-4,1.944543638E-4
1.297865691E0,-1.099999994E-3,2.474999987E-3,1.099999994E-3,2.923290083E-3
1.300261309E0,1.374999993E-4,2.474999987E-3,1.099999994E-3,2.711923887E-3
1.302657999E0,1.374999993E-4,1.237499993E-3,-1.374999993E-4,1.252684610E-3
1.305054614E0,1.374999993E-4,0.000000000E0,-2.474999987E-3,2.478816488E-3
1.307451460E0,1.374999993E-4,1.237499993E-3,-1.374999993E-3,1.854976405E-3
1.309848107E0,1.374999993E-4,1.237499993E-3,-1.374999993E-4,1.252684610E-3
1.312244722E0,-1.099999994E-3,1.237499993E-3,-1.374999993E-4,1.661418812E-3
1.314641566E0,1.374999993E-4,1.237499993E-3,-1.374999993E-4,1.252684610E-3
1.317039412E0,-1.099999994E-3,2.474999987E-3,-1.374999993E-4,2.711923887E-3
1.319434876E0,1.374999993E-4,1.237499993E-3,-1.374999993E-4,1.252684610E-3
1.321831701E0,1.374999993E-4,2.474999987E-3,-1.374999993E-3,2.834635102E-3
1.324228317E0,1.374999993E-4,-1.099999994E-3,-1.374999993E-4,1.117055275E-3
1.326625009E0,1.374999993E-4,-1.099999994E-3,-1.374999993E-3,1.766219470E-3
1.329021855E0,1.374999993E-4,0.000000000E0,-1.374999993E-3,1.381857890E-3
1.331418472E0,1.374999993E-4,1.237499993E-3,-1.374999993E-4,1.252684610E-3
1.333815148E0,1.374999993E-4,-1.099999994E-3,-1.374999993E-4,1.117055275E-3
1.336212994E0,-1.099999994E-3,1.237499993E-3,-1.374999993E-4,1.661418812E-3
1.338608611E0,-1.099999994E-3,0.000000000E0,-1.374999993E-3,1.760859156E-3
1.341005302E0,2.474999987E-3,1.237499993E-3,-1.374999993E-3,3.089928178E-3
1.343401917E0,1.374999993E-3,1.237499993E-3,-1.374999993E-4,1.854976405E-3
1.345798754E0,1.374999993E-4,1.237499993E-3,-1.374999993E-3,1.854976405E-3
1.348195448E0,1.374999993E-3,-1.099999994E-3,-1.374999993E-4,1.766219470E-3
1.350592064E0,1.374999993E-4,1.237499993E-3,-1.374999993E-4,1.252684610E-3
1.352988908E0,1.374999993E-4,0.000000000E0,-1.374999993E-4,1.944543638E-4
1.355386754E0,1.374999993E-3,-1.099999994E-3,-1.374999993E-4,1.766219470E-3
1.357782203E0,-1.099999994E-3,-1.099999994E-3,-1.374999993E-4,1.561699787E-3
1.360178816E0,1.374999993E-4,1.237499993E-3,1.099999994E-3,1.661418812E-3
1.362575662E0,1.374999993E-4,-1.099999994E-3,-1.374999993E-4,1.117055275E-3
1.364972357E0,1.374999993E-4,-1.099999994E-3,-1.374999993E-4,1.117055275E-3
1.367368972E0,-1.099999994E-3,0.000000000E0,-1.374999993E-4,1.108560434E-3
1.369765783E0,1.374999993E-4,0.000000000E0,-1.374999993E-3,1.381857890E-3
1.372162477E0,1.374999993E-4,0.000000000E0,-1.374999993E-3,1.381857890E-3
1.374560322E0,1.374999993E-4,-2.337499987E-3,-1.374999993E-3,2.715407413E-3
1.376955939E0,1.374999993E-3,-1.099999994E-3,-1.374999993E-3,2.234110549E-3
1.379352629E0,-1.099999994E-3,1.237499993E-3,1.099999994E-3,1.987814430E-3
1.381749235E0,1.374999993E-4,-1.099999994E-3,-1.374999993E-3,1.766219470E-3
1.384146081E0,-1.099999994E-3,-2.337499987E-3,-1.374999993E-3,2.926522024E-3
1.386542698E0,-1.099999994E-3,-2.337499987E-3,-1.374999993E-3,2.926522024E-3
1.388939389E0,1.374999993E-4,-1.099999994E-3,-1.374999993E-3,1.766219470E-3
1.391336235E0,-1.099999994E-3,-2.337499987E-3,-2.474999987E-3,3.577643234E-3
1.393734057E0,1.374999993E-4,-3.574999981E-3,-1.374999993E-3,3.832773942E-3
1.396129520E0,1.374999993E-3,-2.337499987E-3,-1.374999993E-3,3.040584837E-3
1.398526365E0,-1.099999994E-3,-2.337499987E-3,-1.374999993E-3,2.926522024E-3
1.400922980E0,1.374999993E-4,-1.099999994E-3,-2.474999987E-3,2.711923887E-3
1.403319672E0,1.374999993E-3,0.000000000E0,-1.374999993E-3,1.944543638E-3
1.405716290E0,-1.099999994E-3,1.237499993E-3,-2.474999987E-3,2.977756060E-3
1.408113134E0,-1.099999994E-3,1.237499993E-3,-1.374999993E-4,1.661418812E-3
1.410509828E0,1.374999993E-3,1.237499993E-3,-1.374999993E-4,1.854976405E-3
1.412907672E0,1.374999993E-4,0.000000000E0,-1.374999993E-4,1.944543638E-4
1.415303290E0,1.374999993E-3,1.237499993E-3,-1.374999993E-3,2.304919997E-3
1.417699908E0,1.374999993E-4,-1.099999994E-3,-1.374999993E-3,1.766219470E-3
1.420096600E0,-1.099999994E-3,1.237499993E-3,-1.374999993E-4,1.661418812E-3
1.422493447E0,1.374999993E-4,0.000000000E0,-1.374999993E-4,1.944543638E-4
1.424890064E0,-1.099999994E-3,0.000000000E0,-1.374999993E-4,1.108560434E-3
1.427286754E0,-1.099999994E-3,-1.099999994E-3,-1.374999993E-3,2.076204458E-3
1.429683600E0,1.374999993E-4,0.000000000E0,-1.374999993E-4,1.944543638E-4
1.432081447E0,1.374999993E-3,0.000000000E0,-1.374999993E-3,1.944543638E-3
1.434476910E0,1.374999993E-4,0.000000000E0,-1.374999993E-4,1.944543638E-4
1.436873523E0,1.374999993E-4,-1.099999994E-3,-1.374999993E-4,1.117055275E-3
1.439270370E0,-1.099999994E-3,1.237499993E-3,-1.374999993E-4,1.661418812E-3
1.441667068E0,1.374999993E-4,-1.099999994E-3,1.099999994E-3,1.561699787E-3
1.444063683E0,1.374999993E-4,0.000000000E0,-1.374999993E-4,1.944543638E-4
1.446460528E0,1.374999993E-4,1.237499993E-3,-1.374999993E-3,1.854976405E-3
1.448857222E0,1.374999993E-4,1.237499993E-3,-1.374999993E-3,1.854976405E-3
1.451254989E0,1.374999993E-4,0.000000000E0,-1.374999993E-4,1.944543638E-4
1.453650679E0,1.374999993E-4,0.000000000E0,-1.374999993E-3,1.381857890E-3
1.456047293E0,1.374999993E-4,0.000000000E0,-1.374999993E-4,1.944543638E-4
1.458443985E0,1.374999993E-4,1.237499993E-3,-1.374999993E-3,1.854976405E-3
1.460840602E0,1.374999993E-4,1.237499993E-3,-1.374999993E-3,1.854976405E-3
1.463237447E0,1.374999993E-3,1.237499993E-3,-2.474999987E-3,3.089928178E-3
1.465634136E0,1.374999993E-4,1.237499993E-3,-1.374999993E-4,1.252684610E-3
1.468030751E0,-1.099999994E-3,1.237499993E-3,-1.374999993E-4,1.661418812E-3
1.470428595E0,1.374999993E-3,2.474999987E-3,-1.374999993E-3,3.147518847E-3
1.472824290E0,-1.099999994E-3,1.237499993E-3,-1.374999993E-3,2.152215417E-3
1.475220903E0,1.374999993E-4,0.000000000E0,-2.474999987E-3,2.478816488E-3
1.477617749E0,1.374999993E-4,0.000000000E0,-1.374999993E-3,1.381857890E-3
1.480014444E0,-1.099999994E-3,1.237499993E-3,-1.374999993E-3,2.152215417E-3
1.482411059E0,-1.099999994E-3,1.237499993E-3,-2.474999987E-3,2.977756060E-3
1.484807674E0,-1.099999994E-3,1.237499993E-3,-1.374999993E-3,2.152215417E-3
1.487204519E0,1.374999993E-4,0.000000000E0,-1.374999993E-3,1.381857890E-3
1.489602355E0,1.374999993E-3,0.000000000E0,-1.374999993E-4,1.381857890E-3
1.491998049E0,1.374999993E-4,0.000000000E0,-1.374999993E-3,1.381857890E-3
1.494394662E0,-1.099999994E-3,1.237499993E-3,-1.374999993E-3,2.152215417E-3
1.496791355E0,-1.099999994E-3,0.000000000E0,-1.374999993E-4,1.108560434E-3
1.499187972E0,1.374999993E-4,1.237499993E-3,-1.374999993E-3,1.854976405E-3
1.501584826E0,1.374999993E-4,-2.337499987E-3,-1.374999993E-4,2.345574277E-3
1.503981521E0,-1.099999994E-3,-2.337499987E-3,-2.474999987E-3,3.577643234E-3
1.506378136E0,-1.099999994E-3,0.000000000E0,-1.374999993E-4,1.108560434E-3
1.508775980E0,1.374999993E-4,1.237499993E-3,-1.374999993E-4,1.252684610E-3
1.511171598E0,1.374999993E-4,-1.099999994E-3,-1.374999993E-4,1.117055275E-3
1.513568278E0,1.374999993E-4,0.000000000E0,-1.374999993E-3,1.381857890E-3
1.515965124E0,1.374999993E-4,-1.099999994E-3,-2.474999987E-3,2.711923887E-3
1.518361741E0,1.374999993E-4,0.000000000E0,-2.474999987E-3,2.478816488E-3
1.520758432E0,-1.099999994E-3,-1.099999994E-3,-1.374999993E-3,2.076204458E-3
1.523155049E0,1.374999993E-3,-2.337499987E-3,-2.474999987E-3,3.671533209E-3
1.525551912E0,1.374999993E-3,-2.337499987E-3,-1.374999993E-3,3.040584837E-3
1.527949758E0,1.374999993E-4,-1.099999994E-3,-2.474999987E-3,2.711923887E-3
1.530345222E0,1.374999993E-4,-1.099999994E-3,-1.374999993E-3,1.766219470E-3
1.532742066E0,-1.099999994E-3,0.000000000E0,-1.374999993E-3,1.760859156E-3
1.535138758E0,1.374999993E-4,1.237499993E-3,-2.474999987E-3,2.770548216E-3
1.537535376E0,1.374999993E-4,-2.337499987E-3,-1.374999993E-3,2.715407413E-3
1.539931991E0,-1.099999994E-3,-2.337499987E-3,-1.374999993E-3,2.926522024E-3
1.542328912E0,1.374999993E-3,-1.099999994E-3,-2.474999987E-3,3.037474263E-3
1.544725530E0,1.374999993E-3,-1.099999994E-3,-2.474999987E-3,3.037474263E-3
1.547123374E0,1.374999993E-4,-1.099999994E-3,-2.474999987E-3,2.711923887E-3
1.549518991E0,1.374999993E-4,-2.337499987E-3,-1.374999993E-3,2.715407413E-3
1.551915682E0,1.374999993E-3,0.000000000E0,-1.374999993E-3,1.944543638E-3
1.554312297E0,1.374999993E-4,0.000000000E0,-2.474999987E-3,2.478816488E-3
1.556709143E0,1.374999993E-4,2.474999987E-3,-1.374999993E-3,2.834635102E-3
1.559105837E0,1.374999993E-3,-1.099999994E-3,-1.374999993E-4,1.766219470E-3
1.561502482E0,1.374999993E-4,0.000000000E0,-2.474999987E-3,2.478816488E-3
1.563899326E0,-1.099999994E-3,-1.099999994E-3,-2.474999987E-3,2.923290083E-3
1.566297172E0,1.374999993E-4,0.000000000E0,-1.374999993E-4,1.944543638E-4
1.568692636E0,1.374999993E-3,-1.099999994E-3,-1.374999993E-4,1.766219470E-3
1.571089480E0,1.374999993E-3,1.237499993E-3,-2.474999987E-3,3.089928178E-3
1.573486119E0,1.374999993E-3,0.000000000E0,-2.474999987E-3,2.831298273E-3
1.575882812E0,1.374999993E-3,1.237499993E-3,-1.374999993E-3,2.304919997E-3
1.578279429E0,1.374999993E-3,0.000000000E0,-1.374999993E-3,1.944543638E-3
1.580676273E0,1.374999993E-3,0.000000000E0,-3.712499980E-3,3.958949492E-3
1.583072967E0,1.374999993E-4,1.237499993E-3,-2.474999987E-3,2.770548216E-3
1.585470826E0,1.374999993E-4,1.237499993E-3,-1.374999993E-3,1.854976405E-3
1.587866443E0,1.374999993E-3,1.237499993E-3,-1.374999993E-4,1.854976405E-3
1.590263133E0,1.374999993E-4,1.237499993E-3,-1.374999993E-4,1.252684610E-3
1.592659749E0,1.374999993E-3,1.237499993E-3,-1.374999993E-3,2.304919997E-3
1.595056595E0,1.374999993E-4,2.474999987E-3,-1.374999993E-3,2.834635102E-3
1.597453275E0,1.374999993E-4,0.000000000E0,-1.374999993E-3,1.381857890E-3
1.599849891E0,1.374999993E-4,0.000000000E0,-1.374999993E-3,1.381857890E-3
1.602246735E0,1.374999993E-3,-1.099999994E-3,-1.374999993E-3,2.234110549E-3
1.604644581E0,-1.099999994E-3,1.237499993E-3,-1.374999993E-3,2.152215417E-3
1.607040044E0,1.374999993E-4,-1.099999994E-3,-1.374999993E-4,1.117055275E-3
1.609436889E0,1.374999993E-4,0.000000000E0,-1.374999993E-3,1.381857890E-3
1.611833504E0,-1.099999994E-3,1.237499993E-3,-1.374999993E-3,2.152215417E-3
1.614230196E0,-1.099999994E-3,-1.099999994E-3,-1.374999993E-4,1.561699787E-3
1.616626814E0,-1.099999994E-3,0.000000000E0,-1.374999993E-4,1.108560434E-3
1.619023658E0,-1.099999994E-3,1.237499993E-3,-1.374999993E-4,1.661418812E-3
1.621420371E0,-2.337499987E-3,0.000000000E0,-1.374999993E-3,2.711923887E-3
1.623818215E0,-1.099999994E-3,0.000000000E0,-1.374999993E-3,1.760859156E-3
1.626213833E0,2.474999987E-3,0.000000000E0,-1.374999993E-3,2.831298273E-3
1.628610446E0,1.374999993E-4,1.237499993E-3,-1.374999993E-3,1.854976405E-3
1.631007138E0,1.374999993E-4,1.237499993E-3,-2.474999987E-3,2.770548216E-3
1.633403985E0,1.374999993E-4,1.237499993E-3,-1.374999993E-4,1.252684610E-3
1.635800602E0,1.374999993E-4,3.712499980E-3,-1.374999993E-3,3.961336559E-3
1.638197292E0,-1.099999994E-3,0.000000000E0,-1.374999993E-4,1.108560434E-3
1.640594138E0,1.374999993E-4,0.000000000E0,-1.374999993E-4,1.944543638E-4
1.642991985E0,1.374999993E-4,0.000000000E0,-1.374999993E-4,1.944543638E-4
1.645387453E0,-1.099999994E-3,1.237499993E-3,-3.712499980E-3,4.064979990E-3
1.647784067E0,1.374999993E-4,-1.099999994E-3,-2.474999987E-3,2.711923887E-3
1.650180913E0,-1.099999994E-3,-1.099999994E-3,-1.374999993E-3,2.076204458E-3
1.652577607E0,1.374999993E-3,-2.337499987E-3,-1.374999993E-3,3.040584837E-3
1.654974222E0,-2.337499987E-3,-2.337499987E-3,-2.474999987E-3,4.129580767E-3
1.657371057E0,-2.337499987E-3,-1.099999994E-3,-1.374999993E-3,2.926522024E-3
1.659767751E0,1.374999993E-4,-1.099999994E-3,-2.474999987E-3,2.711923887E-3
1.662165595E0,1.374999993E-4,0.000000000E0,-1.374999993E-3,1.381857890E-3
1.664561212E0,-1.099999994E-3,-1.099999994E-3,-1.374999993E-3,2.076204458E-3
1.666957903E0,-1.099999994E-3,0.000000000E0,-2.474999987E-3,2.708435881E-3
1.669354518E0,1.374999993E-4,-1.099999994E-3,-1.374999993E-3,1.766219470E-3
1.671751133E0,1.374999993E-4,-1.099999994E-3,-1.374999993E-4,1.117055275E-3
1.674147980E0,-1.099999994E-3,0.000000000E0,-1.374999993E-3,1.760859156E-3
1.676544674E0,1.374999993E-4,1.237499993E-3,-1.374999993E-4,1.252684610E-3
1.678941289E0,1.374999993E-4,0.000000000E0,-1.374999993E-4,1.944543638E-4
1.681339364E0,-1.099999994E-3,-1.099999994E-3,-1.374999993E-3,2.076204458E-3
1.683734828E0,1.374999993E-4,-2.337499987E-3,-1.374999993E-3,2.715407413E-3
1.686131441E0,1.374999993E-4,0.000000000E0,-1.374999993E-4,1.944543638E-4
1.688528287E0,1.374999993E-4,-1.099999994E-3,-1.374999993E-3,1.766219470E-3
1.690924982E0,1.374999993E-4,-1.099999994E-3,-1.374999993E-3,1.766219470E-3
1.693321617E0,1.374999993E-3,-1.099999994E-3,-1.374999993E-3,2.234110549E-3
1.695718461E0,1.374999993E-4,-1.099999994E-3,-1.374999993E-3,1.766219470E-3
1.698115156E0,-1.099999994E-3,0.000000000E0,-2.474999987E-3,2.708435881E-3
1.700512923E0,1.374999993E-4,0.000000000E0,-1.374999993E-3,1.381857890E-3
1.702908386E0,1.374999993E-4,-1.099999994E-3,-2.474999987E-3,2.711923887E-3
1.705305240E0,1.374999993E-4,0.000000000E0,-1.374999993E-3,1.381857890E-3
1.707701932E0,2.474999987E-3,0.000000000E0,-1.374999993E-3,2.831298273E-3
1.710098549E0,1.374999993E-4,-1.099999994E-3,-1.374999993E-4,1.117055275E-3
1.712495393E0,1.374999993E-3,0.000000000E0,-1.374999993E-3,1.944543638E-3
1.714892088E0,1.374999993E-3,0.000000000E0,-2.474999987E-3,2.831298273E-3
1.717288708E0,1.374999993E-4,1.237499993E-3,-1.374999993E-3,1.854976405E-3
1.719686783E0,1.374999993E-4,1.237499993E-3,-1.374999993E-4,1.252684610E-3
1.722082247E0,-1.099999994E-3,1.237499993E-3,-1.374999993E-4,1.661418812E-3
1.724478860E0,1.374999993E-4,1.237499993E-3,-1.374999993E-3,1.854976405E-3
1.726875475E0,1.374999993E-3,0.000000000E0,-1.374999993E-4,1.381857890E-3
1.729272346E0,1.374999993E-4,-1.099999994E-3,-1.374999993E-3,1.766219470E-3
1.731669041E0,1.374999993E-4,-2.337499987E-3,-1.374999993E-3,2.715407413E-3
1.734065656E0,1.374999993E-3,-1.099999994E-3,-1.374999993E-3,2.234110549E-3
1.736462500E0,1.374999993E-3,-1.099999994E-3,-1.374999993E-3,2.234110549E-3
1.738860347E0,1.374999993E-4,-1.099999994E-3,-1.374999993E-4,1.117055275E-3
1.741255800E0,1.374999993E-3,1.237499993E-3,-1.374999993E-3,2.304919997E-3
1.743652644E0,1.374999993E-4,1.237499993E-3,-1.374999993E-3,1.854976405E-3
1.746049337E0,1.374999993E-4,-1.099999994E-3,-1.374999993E-4,1.117055275E-3
1.748445954E0,1.374999993E-3,-1.099999994E-3,-1.374999993E-3,2.234110549E-3
1.750842798E0,1.374999993E-3,2.474999987E-3,-1.374999993E-3,3.147518847E-3
1.753239497E0,-1.099999994E-3,0.000000000E0,-1.374999993E-4,1.108560434E-3
1.755636113E0,1.374999993E-4,-2.337499987E-3,-1.374999993E-3,2.715407413E-3
1.758034188E0,-1.099999994E-3,-1.099999994E-3,-1.374999993E-3,2.076204458E-3
1.760429651E0,1.374999993E-3,0.000000000E0,-1.374999993E-3,1.944543638E-3
1.762826265E0,1.374999993E-4,1.237499993E-3,-1.374999993E-4,1.252684610E-3
1.765222875E0,-1.099999994E-3,0.000000000E0,1.099999994E-3,1.555634910E-3
1.767619721E0,1.374999993E-4,0.000000000E0,-2.474999987E-3,2.478816488E-3
1.770016416E0,1.374999993E-3,0.000000000E0,-1.374999993E-3,1.944543638E-3
1.772413031E0,-1.099999994E-3,0.000000000E0,-1.374999993E-3,1.760859156E-3
1.774809875E0,-1.099999994E-3,-1.099999994E-3,-1.374999993E-3,2.076204458E-3
1.777207707E0,1.374999993E-3,0.000000000E0,-2.474999987E-3,2.831298273E-3
1.779603171E0,1.374999993E-4,0.000000000E0,-2.474999987E-3,2.478816488E-3
1.782000015E0,1.374999993E-4,0.000000000E0,-2.474999987E-3,2.478816488E-3
1.784396707E0,-1.099999994E-3,0.000000000E0,-1.374999993E-4,1.108560434E-3
1.786793325E0,-1.099999994E-3,-1.099999994E-3,-2.474999987E-3,2.923290083E-3
1.789189949E0,-1.099999994E-3,-1.099999994E-3,-1.374999993E-4,1.561699787E-3
1.791586793E0,-1.099999994E-3,0.000000000E0,-1.374999993E-3,1.760859156E-3
1.793983487E0,1.374999993E-4,-1.099999994E-3,-2.474999987E-3,2.711923887E-3
1.796381332E0,1.374999993E-4,-2.337499987E-3,-2.474999987E-3,3.407115697E-3
1.798776949E0,1.374999993E-4,-1.099999994E-3,-1.374999993E-3,1.766219470E-3
1.801173659E0,-1.099999994E-3,1.237499993E-3,-1.374999993E-3,2.152215417E-3
1.803570275E0,1.374999993E-4,-1.099999994E-3,-1.374999993E-3,1.766219470E-3
1.805967121E0,1.374999993E-4,0.000000000E0,-1.374999993E-3,1.381857890E-3
1.808363815E0,-1.099999994E-3,-1.099999994E-3,-2.474999987E-3,2.923290083E-3
1.810760431E0,-1.099999994E-3,-1.099999994E-3,-1.374999993E-3,2.076204458E-3
1.813157265E0,-1.099999994E-3,-1.099999994E-3,-1.374999993E-3,2.076204458E-3
1.815555111E0,1.374999993E-4,0.000000000E0,-1.374999993E-3,1.381857890E-3
1.817950574E0,-1.099999994E-3,-1.099999994E-3,1.099999994E-3,1.905255878E-3
1.820347419E0,1.374999993E-4,0.000000000E0,-1.374999993E-3,1.381857890E-3
1.822744034E0,1.374999993E-4,0.000000000E0,-1.374999993E-4,1.944543638E-4
1.825140740E0,-1.099999994E-3,0.000000000E0,-2.474999987E-3,2.708435881E-3
1.827537358E0,1.374999993E-4,0.000000000E0,-1.374999993E-3,1.381857890E-3
1.829934202E0,1.374999993E-4,-2.337499987E-3,-1.374999993E-3,2.715407413E-3
1.832330896E0,-1.099999994E-3,0.000000000E0,-1.374999993E-3,1.760859156E-3
1.834728740E0,1.374999993E-3,-1.099999994E-3,-1.374999993E-3,2.234110549E-3
1.837124358E0,1.374999993E-4,-2.337499987E-3,-3.712499980E-3,4.389244644E-3
1.839521048E0,-1.099999994E-3,-1.099999994E-3,-1.374999993E-4,1.561699787E-3
1.841917663E0,1.374999993E-3,0.000000000E0,-2.474999987E-3,2.831298273E-3
1.844314510E0,1.374999993E-3,0.000000000E0,-1.374999993E-4,1.381857890E-3
1.846711204E0,1.374999993E-3,-1.099999994E-3,-2.474999987E-3,3.037474263E-3
1.849107834E0,1.374999993E-4,2.474999987E-3,-2.474999987E-3,3.502878262E-3
1.851504678E0,1.374999993E-4,0.000000000E0,-1.374999993E-3,1.381857890E-3
1.853902525E0,-1.099999994E-3,-1.099999994E-3,-1.374999993E-3,2.076204458E-3
1.856297988E0,1.374999993E-4,0.000000000E0,-1.374999993E-4,1.944543638E-4
1.858694832E0,1.374999993E-4,2.474999987E-3,1.099999994E-3,2.711923887E-3
1.861091452E0,1.374999993E-4,1.237499993E-3,-1.374999993E-4,1.252684610E-3
1.863488144E0,1.374999993E-3,0.000000000E0,-1.374999993E-4,1.381857890E-3
1.865884761E0,1.374999993E-3,0.000000000E0,-1.374999993E-3,1.944543638E-3
1.868281606E0,1.374999993E-4,0.000000000E0,-1.374999993E-4,1.944543638E-4
1.870678300E0,1.374999993E-4,1.237499993E-3,-1.374999993E-3,1.854976405E-3
1.873076154E0,1.374999993E-4,-1.099999994E-3,-1.374999993E-4,1.117055275E-3
1.875471771E0,-1.099999994E-3,-1.099999994E-3,-1.374999993E-4,1.561699787E-3
1.877868462E0,1.374999993E-3,0.000000000E0,-1.374999993E-4,1.381857890E-3
1.880265077E0,1.374999993E-4,1.237499993E-3,-1.374999993E-4,1.252684610E-3
1.882661923E0,1.374999993E-4,0.000000000E0,-1.374999993E-4,1.944543638E-4
1.885058526E0,1.374999993E-4,6.187499966E-3,-1.374999993E-4,6.190554768E-3
1.887455216E0,1.374999993E-3,1.237499993E-3,-1.374999993E-3,2.304919997E-3
1.889852062E0,1.374999993E-4,0.000000000E0,-2.474999987E-3,2.478816488E-3
1.892249908E0,1.374999993E-4,-1.099999994E-3,-1.374999993E-4,1.117055275E-3
1.894645372E0,1.374999993E-4,-1.099999994E-3,-1.374999993E-3,1.766219470E-3
1.897041976E0,1.374999993E-4,1.237499993E-3,-1.374999993E-4,1.252684610E-3
1.899438822E0,1.374999993E-4,1.237499993E-3,-1.374999993E-3,1.854976405E-3
1.901835517E0,1.374999993E-4,0.000000000E0,-1.374999993E-3,1.381857890E-3
1.904232132E0,1.374999993E-4,-1.099999994E-3,-1.374999993E-3,1.766219470E-3
1.906628976E0,1.374999993E-4,0.000000000E0,-1.374999993E-3,1.381857890E-3
1.909025666E0,1.374999993E-4,-1.099999994E-3,-1.374999993E-3,1.766219470E-3
1.911423510E0,-1.099999994E-3,-1.099999994E-3,-1.374999993E-4,1.561699787E-3
1.913819127E0,-1.099999994E-3,-2.337499987E-3,-1.374999993E-4,2.587047048E-3
1.916215741E0,-1.099999994E-3,0.000000000E0,1.099999994E-3,1.555634910E-3
1.918612433E0,1.374999993E-4,0.000000000E0,-1.374999993E-4,1.944543638E-4
1.921009279E0,1.374999993E-3,0.000000000E0,-1.374999993E-4,1.381857890E-3
1.923405896E0,1.374999993E-3,-2.337499987E-3,-1.374999993E-4,2.715407413E-3
1.925802587E0,-1.099999994E-3,0.000000000E0,-1.374999993E-3,1.760859156E-3
1.928199433E0,-1.099999994E-3,0.000000000E0,-1.374999993E-4,1.108560434E-3
1.930597279E0,-1.099999994E-3,0.000000000E0,1.099999994E-3,1.555634910E-3
1.932992752E0,1.374999993E-4,-2.337499987E-3,-1.374999993E-4,2.345574277E-3
1.935389365E0,1.374999993E-4,0.000000000E0,-1.374999993E-3,1.381857890E-3
1.937786211E0,1.374999993E-4,-1.099999994E-3,-1.374999993E-4,1.117055275E-3
1.940182905E0,-1.099999994E-3,0.000000000E0,-1.374999993E-3,1.760859156E-3
1.942579521E0,1.374999993E-3,-1.099999994E-3,-1.374999993E-3,2.234110549E-3
1.944976351E0,1.374999993E-4,0.000000000E0,-1.374999993E-4,1.944543638E-4
1.947373045E0,-1.099999994E-3,-1.099999994E-3,-1.374999993E-3,2.076204458E-3
1.949770889E0,1.374999993E-4,1.237499993E-3,-1.374999993E-3,1.854976405E-3
1.952166507E0,-1.099999994E-3,0.000000000E0,-1.374999993E-3,1.760859156E-3
1.954563120E0,-1.099999994E-3,0.000000000E0,-1.374999993E-4,1.108560434E-3
1.956959827E0,1.374999993E-3,-1.099999994E-3,-1.374999993E-4,1.766219470E-3
1.959356673E0,1.374999993E-4,0.000000000E0,-1.374999993E-3,1.381857890E-3
1.961753290E0,-1.099999994E-3,-1.099999994E-3,-1.374999993E-4,1.561699787E-3
1.964149980E0,1.374999993E-4,0.000000000E0,-1.374999993E-3,1.381857890E-3
1.966546827E0,1.374999993E-4,-1.099999994E-3,-2.474999987E-3,2.711923887E-3
1.968944442E0,1.374999993E-4,1.237499993E-3,-1.374999993E-3,1.854976405E-3
1.971340059E0,-1.099999994E-3,0.000000000E0,-1.374999993E-4,1.108560434E-3
1.973736750E0,-1.099999994E-3,0.000000000E0,-1.374999993E-4,1.108560434E-3
1.976133596E0,1.374999993E-4,-1.099999994E-3,1.099999994E-3,1.561699787E-3
1.978530213E0,-1.099999994E-3,1.237499993E-3,-1.374999993E-3,2.152215417E-3
1.980926914E0,1.374999993E-4,-2.337499987E-3,1.099999994E-3,2.587047048E-3
1.983323760E0,1.374999993E-3,1.237499993E-3,-1.374999993E-3,2.304919997E-3
1.985720377E0,1.374999993E-3,-1.099999994E-3,-1.374999993E-3,2.234110549E-3
1.988118298E0,1.374999993E-3,0.000000000E0,-1.374999993E-4,1.381857890E-3
1.990513916E0,1.374999993E-3,-2.337499987E-3,-1.374999993E-3,3.040584837E-3
1.992910524E0,1.374999993E-3,1.237499993E-3,-1.374999993E-4,1.854976405E-3
1.995307139E0,1.374999993E-4,0.000000000E0,-1.374999993E-3,1.381857890E-3
1.997704062E0,1.374999993E-4,2.474999987E-3,-1.374999993E-4,2.482627123E-3
2.000100680E0,1.374999993E-3,-2.337499987E-3,-1.374999993E-3,3.040584837E-3
2.002497370E0,1.374999993E-3,0.000000000E0,-1.374999993E-3,1.944543638E-3
2.004893983E0,1.374999993E-4,0.000000000E0,-1.374999993E-4,1.944543638E-4
2.007291827E0,1.374999993E-4,2.474999987E-3,-1.374999993E-4,2.482627123E-3
2.009687444E0,1.374999993E-4,-1.099999994E-3,1.099999994E-3,1.561699787E-3
2.012084134E0,1.374999993E-4,1.237499993E-3,-1.374999993E-4,1.252684610E-3
2.014480981E0,1.374999993E-4,0.000000000E0,-1.374999993E-3,1.381857890E-3
2.016877593E0,-1.099999994E-3,-1.099999994E-3,-1.374999993E-3,2.076204458E-3
2.019274283E0,1.374999993E-4,0.000000000E0,-1.374999993E-4,1.944543638E-4
2.021671129E0,1.374999993E-4,1.237499993E-3,-1.374999993E-3,1.854976405E-3
2.024067747E0,1.374999993E-4,0.000000000E0,-1.374999993E-3,1.381857890E-3
2.026465668E0,1.374999993E-4,1.237499993E-3,-1.374999993E-3,1.854976405E-3
2.028861281E0,1.374999993E-4,1.237499993E-3,-1.374999993E-4,1.252684610E-3
2.031257895E0,1.374999993E-4,1.237499993E-3,-1.374999993E-4,1.252684610E-3
2.033654510E0,1.374999993E-3,0.000000000E0,-1.374999993E-4,1.381857890E-3
2.036051433E0,1.374999993E-4,3.712499980E-3,-1.374999993E-4,3.717589084E-3
2.038448051E0,1.374999993E-3,-1.099999994E-3,-1.374999993E-3,2.234110549E-3
2.040844651E0,1.374999993E-3,-1.099999994E-3,-1.374999993E-3,2.234110549E-3
2.043241341E0,-1.099999994E-3,0.000000000E0,-1.374999993E-3,1.760859156E-3
2.045639187E0,1.374999993E-3,0.000000000E0,-2.474999987E-3,2.831298273E-3
2.048034805E0,1.374999993E-3,1.237499993E-3,-1.374999993E-3,2.304919997E-3
2.050431495E0,1.374999993E-4,0.000000000E0,-1.374999993E-4,1.944543638E-4
2.052828336E0,1.374999993E-3,0.000000000E0,-1.374999993E-3,1.944543638E-3
2.055224954E0,-1.099999994E-3,-2.337499987E-3,-1.374999993E-4,2.587047048E-3
2.057621569E0,1.374999993E-4,-1.099999994E-3,-1.374999993E-4,1.117055275E-3
2.060018259E0,1.374999993E-4,-2.337499987E-3,-1.374999993E-4,2.345574277E-3
2.062415106E0,1.374999993E-4,0.000000000E0,-1.374999993E-3,1.381857890E-3
2.064812952E0,1.374999993E-3,0.000000000E0,-1.374999993E-4,1.381857890E-3
2.067208415E0,1.374999993E-3,0.000000000E0,1.099999994E-3,1.760859156E-3
2.069605259E0,1.374999993E-4,-1.099999994E-3,1.099999994E-3,1.561699787E-3
2.072001875E0,1.374999993E-4,-1.099999994E-3,1.099999994E-3,1.561699787E-3
2.074398567E0,-1.099999994E-3,0.000000000E0,-1.374999993E-4,1.108560434E-3
2.076795409E0,-2.337499987E-3,1.237499993E-3,1.099999994E-3,2.864491650E-3
2.079192027E0,-1.099999994E-3,-1.099999994E-3,-1.374999993E-4,1.561699787E-3
2.081588717E0,-1.099999994E-3,-1.099999994E-3,-1.374999993E-4,1.561699787E-3
2.083986563E0,-1.099999994E-3,-1.099999994E-3,-1.374999993E-3,2.076204458E-3
2.086382180E0,-1.099999994E-3,-1.099999994E-3,-1.374999993E-3,2.076204458E-3
2.088778871E0,1.374999993E-4,-1.099999994E-3,-1.374999993E-4,1.117055275E-3
2.091175717E0,1.374999993E-3,-1.099999994E-3,-1.374999993E-4,1.766219470E-3
2.093572334E0,1.374999993E-4,0.000000000E0,-1.374999993E-3,1.381857890E-3
2.095968950E0,1.374999993E-4,-1.099999994E-3,-1.374999993E-4,1.117055275E-3
2.098365640E0,1.374999993E-4,-1.099999994E-3,-1.374999993E-4,1.117055275E-3
2.100762495E0,1.374999993E-4,0.000000000E0,-1.374999993E-3,1.381857890E-3
2.103160341E0,1.374999993E-4,0.000000000E0,-1.374999993E-3,1.381857890E-3
2.105555805E0,1.374999993E-3,0.000000000E0,-1.374999993E-4,1.381857890E-3
2.107952649E0,1.374999993E-4,0.000000000E0,-1.374999993E-4,1.944543638E-4
2.110349264E0,1.374999993E-4,0.000000000E0,-2.474999987E-3,2.478816488E-3
2.112745952E0,1.374999993E-3,0.000000000E0,-1.374999993E-4,1.381857890E-3
2.115142798E0,1.374999993E-4,0.000000000E0,-1.374999993E-4,1.944543638E-4
2.117539415E0,1.374999993E-3,0.000000000E0,-1.374999993E-4,1.381857890E-3
2.119936106E0,1.374999993E-3,0.000000000E0,-1.374999993E-3,1.944543638E-3
2.122333952E0,1.374999993E-4,0.000000000E0,-1.374999993E-3,1.381857890E-3
2.124729579E0,1.374999993E-3,-1.099999994E-3,-1.374999993E-4,1.766219470E-3
2.127126270E0,1.374999993E-3,-1.099999994E-3,-1.374999993E-3,2.234110549E-3
2.129522885E0,-1.099999994E-3,0.000000000E0,-2.474999987E-3,2.708435881E-3
2.131919731E0,1.374999993E-4,0.000000000E0,-1.374999993E-4,1.944543638E-4
2.134316348E0,-1.099999994E-3,0.000000000E0,-1.374999993E-4,1.108560434E-3
2.136713034E0,1.374999993E-4,0.000000000E0,1.099999994E-3,1.108560434E-3
2.139109880E0,-1.099999994E-3,-1.099999994E-3,-1.374999993E-4,1.561699787E-3
2.141507726E0,1.374999993E-3,-1.099999994E-3,-1.374999993E-4,1.766219470E-3
2.143903190E0,1.374999993E-4,0.000000000E0,-1.374999993E-3,1.381857890E-3
2.146300034E0,1.374999993E-4,0.000000000E0,-1.374999993E-4,1.944543638E-4
2.148696635E0,1.374999993E-4,1.237499993E-3,-1.374999993E-4,1.252684610E-3
2.151093327E0,1.374999993E-4,1.237499993E-3,-1.374999993E-4,1.252684610E-3
2.153489945E0,1.374999993E-3,0.000000000E0,2.337499987E-3,2.711923887E-3
2.155886789E0,-1.099999994E-3,0.000000000E0,-2.474999987E-3,2.708435881E-3
2.158283483E0,1.374999993E-4,-1.099999994E-3,-1.374999993E-3,1.766219470E-3
2.160681318E0,1.374999993E-3,-1.099999994E-3,-1.374999993E-4,1.766219470E-3
2.163076935E0,1.374999993E-3,0.000000000E0,-1.374999993E-3,1.944543638E-3
2.165473625E0,1.374999993E-4,1.237499993E-3,-1.374999993E-3,1.854976405E-3
2.167870241E0,1.374999993E-3,0.000000000E0,-1.374999993E-3,1.944543638E-3
2.170267087E0,1.374999993E-4,1.237499993E-3,-1.374999993E-4,1.252684610E-3
2.172663694E0,1.374999993E-4,0.000000000E0,-1.374999993E-3,1.381857890E-3
2.175060384E0,-1.099999994E-3,0.000000000E0,1.099999994E-3,1.555634910E-3
2.177457231E0,-2.337499987E-3,0.000000000E0,-1.374999993E-4,2.341540613E-3
2.179855077E0,-1.099999994E-3,0.000000000E0,1.099999994E-3,1.555634910E-3
2.182250540E0,1.374999993E-3,-1.099999994E-3,-1.374999993E-4,1.766219470E-3
2.184647379E0,1.374999993E-4,-1.099999994E-3,-1.374999993E-4,1.117055275E-3
2.187043995E0,1.374999993E-4,1.237499993E-3,2.337499987E-3,2.648437025E-3
2.189440687E0,-1.099999994E-3,0.000000000E0,-1.374999993E-3,1.760859156E-3
2.191837305E0,1.374999993E-4,-1.099999994E-3,-1.374999993E-4,1.117055275E-3
2.194234149E0,1.374999993E-4,-1.099999994E-3,-1.374999993E-4,1.117055275E-3
2.196630843E0,-1.099999994E-3,-2.337499987E-3,1.099999994E-3,2.807829440E-3
2.199028687E0,1.374999993E-4,1.237499993E-3,1.099999994E-3,1.661418812E-3
2.201424305E0,1.374999993E-4,-1.099999994E-3,-1.374999993E-4,1.117055275E-3
2.203820995E0,-1.099999994E-3,0.000000000E0,-1.374999993E-4,1.108560434E-3
2.206217610E0,1.374999993E-3,0.000000000E0,-1.374999993E-4,1.381857890E-3
2.208614447E0,1.374999993E-4,-1.099999994E-3,-1.374999993E-4,1.117055275E-3
2.211011065E0,1.374999993E-4,0.000000000E0,-1.374999993E-3,1.381857890E-3
2.213407755E0,1.374999993E-4,0.000000000E0,-1.374999993E-4,1.944543638E-4
2.215804601E0,2.474999987E-3,1.237499993E-3,1.099999994E-3,2.977756060E-3
2.218202447E0,1.374999993E-4,0.000000000E0,-1.374999993E-4,1.944543638E-4
2.220597901E0,1.374999993E-3,0.000000000E0,-1.374999993E-4,1.381857890E-3
2.222994745E0,1.374999993E-4,-1.099999994E-3,-1.374999993E-4,1.117055275E-3
2.225391361E0,1.374999993E-4,0.000000000E0,1.099999994E-3,1.108560434E-3
2.227788053E0,1.374999993E-4,-1.099999994E-3,-1.374999993E-4,1.117055275E-3
2.230184670E0,1.374999993E-4,-1.099999994E-3,-1.374999993E-4,1.117055275E-3
2.232581514E0,1.374999993E-4,-1.099999994E-3,-1.374999993E-4,1.117055275E-3
2.234978209E0,1.374999993E-4,-3.574999981E-3,-1.374999993E-4,3.580284536E-3
2.237375976E0,-1.099999994E-3,-2.337499987E-3,1.099999994E-3,2.807829440E-3
2.239771670E0,1.374999993E-3,0.000000000E0,1.099999994E-3,1.760859156E-3
2.242168361E0,1.374999993E-4,0.000000000E0,-1.374999993E-4,1.944543638E-4
2.244564971E0,1.374999993E-4,-2.337499987E-3,-1.374999993E-4,2.345574277E-3
2.246961586E0,-2.337499987E-3,-1.099999994E-3,-1.374999993E-3,2.926522024E-3
2.249358433E0,1.374999993E-4,0.000000000E0,1.099999994E-3,1.108560434E-3
2.251755127E0,-1.099999994E-3,0.000000000E0,1.099999994E-3,1.555634910E-3
2.254151742E0,1.374999993E-4,0.000000000E0,-1.374999993E-4,1.944543638E-4
2.256549813E0,1.374999993E-4,1.237499993E-3,-1.374999993E-4,1.252684610E-3
2.258945277E0,1.374999993E-4,1.237499993E-3,-1.374999993E-4,1.252684610E-3
2.261341890E0,1.374999993E-4,0.000000000E0,2.337499987E-3,2.341540613E-3
2.263738736E0,-1.099999994E-3,0.000000000E0,1.099999994E-3,1.555634910E-3
2.266135431E0,1.374999993E-3,-1.099999994E-3,-1.374999993E-3,2.234110549E-3
2.268532041E0,1.374999993E-4,-1.099999994E-3,-1.374999993E-4,1.117055275E-3
2.270928885E0,1.374999993E-4,-2.337499987E-3,-1.374999993E-4,2.345574277E-3
2.273325579E0,-1.099999994E-3,0.000000000E0,1.099999994E-3,1.555634910E-3
2.275723347E0,1.374999993E-4,-2.337499987E-3,-1.374999993E-3,2.715407413E-3
2.278119041E0,1.374999993E-3,0.000000000E0,1.099999994E-3,1.760859156E-3
2.280515678E0,1.374999993E-3,0.000000000E0,1.099999994E-3,1.760859156E-3
2.282912371E0,1.374999993E-4,0.000000000E0,1.099999994E-3,1.108560434E-3
2.285308988E0,1.374999993E-3,0.000000000E0,2.337499987E-3,2.711923887E-3
2.287705832E0,1.374999993E-4,0.000000000E0,-1.374999993E-4,1.944543638E-4
2.290102527E0,1.374999993E-4,0.000000000E0,-1.374999993E-4,1.944543638E-4
2.292499137E0,1.374999993E-4,-1.099999994E-3,1.099999994E-3,1.561699787E-3
2.294897212E0,1.374999993E-4,0.000000000E0,-1.374999993E-4,1.944543638E-4
2.297292675E0,1.374999993E-3,0.000000000E0,1.099999994E-3,1.760859156E-3
2.299689289E0,1.374999993E-4,1.237499993E-3,1.099999994E-3,1.661418812E-3
2.302086135E0,1.374999993E-4,1.237499993E-3,-1.374999993E-4,1.252684610E-3
2.304482829E0,1.374999993E-4,0.000000000E0,-1.374999993E-4,1.944543638E-4
2.306879445E0,-1.099999994E-3,0.000000000E0,-1.374999993E-4,1.108560434E-3
2.309276060E0,-1.099999994E-3,-1.099999994E-3,-1.374999993E-4,1.561699787E-3
2.311672904E0,-1.099999994E-3,0.000000000E0,-1.374999993E-4,1.108560434E-3
2.314070750E0,-1.099999994E-3,-1.099999994E-3,-1.374999993E-3,2.076204458E-3
2.316466214E0,1.374999993E-4,-1.099999994E-3,-1.374999993E-4,1.117055275E-3
2.318863058E0,1.374999993E-4,0.000000000E0,-1.374999993E-4,1.944543638E-4
2.321259750E0,1.374999993E-4,0.000000000E0,-1.374999993E-4,1.944543638E-4
2.323656368E0,1.374999993E-4,1.237499993E-3,-1.374999993E-4,1.252684610E-3
2.326053212E0,1.374999993E-4,1.237499993E-3,1.099999994E-3,1.661418812E-3
2.328449896E0,1.374999993E-4,-1.099999994E-3,-1.374999993E-4,1.117055275E-3
2.330846512E0,1.374999993E-3,1.237499993E-3,2.337499987E-3,2.980928950E-3
2.333244356E0,1.374999993E-3,-1.099999994E-3,1.099999994E-3,2.076204458E-3
2.335639973E0,1.374999993E-3,0.000000000E0,-1.374999993E-4,1.381857890E-3
2.338036664E0,1.374999993E-4,1.237499993E-3,1.099999994E-3,1.661418812E-3
2.340433529E0,2.474999987E-3,0.000000000E0,-1.374999993E-4,2.478816488E-3
2.342830146E0,1.374999993E-3,-1.099999994E-3,-1.374999993E-4,1.766219470E-3
2.345226836E0,1.374999993E-4,0.000000000E0,-1.374999993E-4,1.944543638E-4
2.347623683E0,1.374999993E-4,-1.099999994E-3,-1.374999993E-4,1.117055275E-3
2.350020300E0,1.374999993E-4,-2.337499987E-3,-1.374999993E-4,2.345574277E-3
2.352418154E0,-1.099999994E-3,0.000000000E0,1.099999994E-3,1.555634910E-3
2.354813848E0,-1.099999994E-3,0.000000000E0,1.099999994E-3,1.555634910E-3
2.357210462E0,1.374999993E-3,0.000000000E0,1.099999994E-3,1.760859156E-3
2.359607154E0,1.374999993E-4,0.000000000E0,2.337499987E-3,2.341540613E-3
2.362003772E0,-1.099999994E-3,0.000000000E0,1.099999994E-3,1.555634910E-3
2.364400616E0,-1.099999994E-3,1.237499993E-3,1.099999994E-3,1.987814430E-3
2.366797310E0,-2.337499987E-3,0.000000000E0,2.337499987E-3,3.305724184E-3
2.369193925E0,1.374999993E-4,-1.099999994E-3,-1.374999993E-4,1.117055275E-3
2.371591770E0,1.374999993E-4,0.000000000E0,1.099999994E-3,1.108560434E-3
2.373987387E0,-1.099999994E-3,0.000000000E0,-1.374999993E-4,1.108560434E-3
2.376384077E0,-1.099999994E-3,-1.099999994E-3,1.099999994E-3,1.905255878E-3
2.378780923E0,1.374999993E-4,-2.337499987E-3,-1.374999993E-4,2.345574277E-3
2.381177541E0,1.374999993E-4,0.000000000E0,-1.374999993E-4,1.944543638E-4
2.383574231E0,1.374999993E-4,0.000000000E0,-1.374999993E-4,1.944543638E-4
2.385971077E0,1.374999993E-4,0.000000000E0,-1.374999993E-4,1.944543638E-4
2.388367676E0,1.374999993E-4,0.000000000E0,1.099999994E-3,1.108560434E-3
2.390765520E0,1.374999993E-4,0.000000000E0,1.099999994E-3,1.108560434E-3
2.393161214E0,-1.099999994E-3,1.237499993E-3,-1.374999993E-4,1.661418812E-3
2.395557828E0,-3.574999981E-3,0.000000000E0,2.337499987E-3,4.271361733E-3
2.397954443E0,1.374999993E-3,0.000000000E0,1.099999994E-3,1.760859156E-3
2.400351144E0,1.374999993E-3,0.000000000E0,1.099999994E-3,1.760859156E-3
2.402747990E0,-1.099999994E-3,2.474999987E-3,-1.374999993E-4,2.711923887E-3
2.405144608E0,-1.099999994E-3,1.237499993E-3,-1.374999993E-4,1.661418812E-3
2.407541298E0,1.374999993E-4,0.000000000E0,2.337499987E-3,2.341540613E-3
2.409939144E0,1.374999993E-4,-2.337499987E-3,1.099999994E-3,2.587047048E-3
2.412334772E0,1.374999993E-4,0.000000000E0,2.337499987E-3,2.341540613E-3
2.414731462E0,1.374999993E-4,0.000000000E0,1.099999994E-3,1.108560434E-3
2.417128308E0,1.374999993E-4,-1.099999994E-3,1.099999994E-3,1.561699787E-3
2.419524926E0,1.374999993E-4,0.000000000E0,-1.374999993E-4,1.944543638E-4
2.421921616E0,1.374999993E-4,1.237499993E-3,1.099999994E-3,1.661418812E-3
2.424318271E0,-1.099999994E-3,1.237499993E-3,2.337499987E-3,2.864491650E-3
2.426715115E0,-1.099999994E-3,-1.099999994E-3,1.099999994E-3,1.905255878E-3
2.429112962E0,1.374999993E-3,1.237499993E-3,1.099999994E-3,2.152215417E-3
2.431508425E0,2.474999987E-3,1.237499993E-3,1.099999994E-3,2.977756060E-3
2.433905269E0,1.374999993E-3,1.237499993E-3,1.099999994E-3,2.152215417E-3
2.436301890E0,1.374999993E-4,4.949999973E-3,1.099999994E-3,5.072613328E-3
2.438698582E0,1.374999993E-4,1.237499993E-3,1.099999994E-3,1.661418812E-3
2.441095428E0,1.374999993E-4,0.000000000E0,1.099999994E-3,1.108560434E-3
2.443492045E0,1.374999993E-4,2.474999987E-3,2.337499987E-3,3.407115697E-3
2.445888736E0,1.374999993E-4,0.000000000E0,2.337499987E-3,2.341540613E-3
2.448286596E0,1.374999993E-4,-1.099999994E-3,1.099999994E-3,1.561699787E-3
2.450682213E0,1.374999993E-3,0.000000000E0,1.099999994E-3,1.760859156E-3
2.453078904E0,1.374999993E-3,2.474999987E-3,-1.374999993E-4,2.834635102E-3
2.455475750E0,-1.099999994E-3,0.000000000E0,1.099999994E-3,1.555634910E-3
2.457872372E0,-1.099999994E-3,-1.099999994E-3,1.099999994E-3,1.905255878E-3
2.460268988E0,1.374999993E-4,-1.099999994E-3,1.099999994E-3,1.561699787E-3
2.462665678E0,1.374999993E-3,1.237499993E-3,2.337499987E-3,2.980928950E-3
2.465062524E0,1.374999993E-3,1.237499993E-3,-1.374999993E-4,1.854976405E-3
2.467460370E0,-1.099999994E-3,1.237499993E-3,1.099999994E-3,1.987814430E-3
2.469855820E0,1.374999993E-4,1.237499993E-3,1.099999994E-3,1.661418812E-3
2.472252664E0,1.374999993E-4,1.237499993E-3,-1.374999993E-4,1.252684610E-3
2.474649279E0,1.374999993E-4,1.237499993E-3,2.337499987E-3,2.648437025E-3
2.477045972E0,1.374999993E-4,1.237499993E-3,-1.374999993E-4,1.252684610E-3
2.479442818E0,1.374999993E-4,-1.099999994E-3,1.099999994E-3,1.561699787E-3
2.481839439E0,1.374999993E-4,-1.099999994E-3,1.099999994E-3,1.561699787E-3
2.484236130E0,1.374999993E-4,0.000000000E0,1.099999994E-3,1.108560434E-3
2.486633976E0,-1.099999994E-3,-2.337499987E-3,-1.374999993E-4,2.587047048E-3
2.489029593E0,1.374999993E-4,0.000000000E0,1.099999994E-3,1.108560434E-3
2.491426283E0,1.374999993E-4,-1.099999994E-3,1.099999994E-3,1.561699787E-3
2.493822879E0,1.374999993E-4,-1.099999994E-3,1.099999994E-3,1.561699787E-3
2.496219725E0,1.374999993E-4,0.000000000E0,-1.374999993E-4,1.944543638E-4
2.498616419E0,-1.099999994E-3,-1.099999994E-3,1.099999994E-3,1.905255878E-3
2.501013035E0,1.374999993E-4,-1.099999994E-3,1.099999994E-3,1.561699787E-3
2.503409879E0,1.374999993E-4,0.000000000E0,1.099999994E-3,1.108560434E-3
2.505807716E0,1.374999993E-4,1.237499993E-3,1.099999994E-3,1.661418812E-3
2.508203179E0,1.374999993E-4,1.237499993E-3,-1.374999993E-3,1.854976405E-3
2.510600024E0,1.374999993E-4,0.000000000E0,2.337499987E-3,2.341540613E-3
2.512996639E0,1.374999993E-4,0.000000000E0,1.099999994E-3,1.108560434E-3
2.515393331E0,-1.099999994E-3,0.000000000E0,2.337499987E-3,2.583390442E-3
2.517789953E0,1.374999993E-4,1.237499993E-3,1.099999994E-3,1.661418812E-3
2.520186797E0,-1.099999994E-3,1.237499993E-3,-1.374999993E-4,1.661418812E-3
2.522583491E0,1.374999993E-4,0.000000000E0,-1.374999993E-4,1.944543638E-4
2.524981335E0,1.374999993E-4,-4.812499974E-3,1.099999994E-3,4.938528347E-3
2.527376953E0,1.374999993E-3,-1.099999994E-3,1.099999994E-3,2.076204458E-3
2.529773615E0,1.374999993E-4,-1.099999994E-3,-1.374999993E-4,1.117055275E-3
2.532170230E0,-1.099999994E-3,0.000000000E0,1.099999994E-3,1.555634910E-3
2.534567077E0,1.374999993E-4,-1.099999994E-3,1.099999994E-3,1.561699787E-3
2.536963771E0,1.374999993E-3,0.000000000E0,-1.374999993E-4,1.381857890E-3
2.539360386E0,1.374999993E-4,0.000000000E0,2.337499987E-3,2.341540613E-3
2.541757220E0,1.374999993E-4,0.000000000E0,2.337499987E-3,2.341540613E-3
2.544155067E0,-1.099999994E-3,-1.099999994E-3,1.099999994E-3,1.905255878E-3
2.546550530E0,1.374999993E-4,2.474999987E-3,1.099999994E-3,2.711923887E-3
2.548947374E0,2.474999987E-3,0.000000000E0,1.099999994E-3,2.708435881E-3
2.551343990E0,1.374999993E-4,0.000000000E0,-1.374999993E-3,1.381857890E-3
2.553740691E0,1.374999993E-4,-1.099999994E-3,-1.374999993E-4,1.117055275E-3
2.556137537E0,-1.099999994E-3,0.000000000E0,1.099999994E-3,1.555634910E-3
2.558534155E0,-1.099999994E-3,-1.099999994E-3,-1.374999993E-4,1.561699787E-3
2.560930845E0,1.374999993E-4,0.000000000E0,-1.374999993E-4,1.944543638E-4
2.563328691E0,1.374999993E-3,-1.099999994E-3,-1.374999993E-4,1.766219470E-3
2.565724294E0,1.374999993E-4,0.000000000E0,1.099999994E-3,1.108560434E-3
2.568120985E0,-1.099999994E-3,1.237499993E-3,1.099999994E-3,1.987814430E-3
2.570517600E0,1.374999993E-4,1.237499993E-3,1.099999994E-3,1.661418812E-3
2.572914446E0,1.374999993E-4,0.000000000E0,-1.374999993E-4,1.944543638E-4
2.575311064E0,-1.099999994E-3,1.237499993E-3,1.099999994E-3,1.987814430E-3
2.577707754E0,1.374999993E-4,-1.099999994E-3,1.099999994E-3,1.561699787E-3
2.580104371E0,-1.099999994E-3,0.000000000E0,1.099999994E-3,1.555634910E-3
2.582502446E0,1.374999993E-4,0.000000000E0,-1.374999993E-4,1.944543638E-4
2.584897910E0,1.374999993E-3,-1.099999994E-3,-1.374999993E-4,1.766219470E-3
2.587294754E0,1.374999993E-4,0.000000000E0,1.099999994E-3,1.108560434E-3
2.589691352E0,1.374999993E-4,0.000000000E0,1.099999994E-3,1.108560434E-3
2.592088043E0,1.374999993E-4,0.000000000E0,2.337499987E-3,2.341540613E-3
2.594484660E0,1.374999993E-3,-1.099999994E-3,3.574999981E-3,3.985128584E-3
2.596881504E0,2.474999987E-3,-2.337499987E-3,3.574999981E-3,4.936613818E-3
2.599278199E0,1.374999993E-4,0.000000000E0,1.099999994E-3,1.108560434E-3
2.601676028E0,1.374999993E-4,0.000000000E0,1.099999994E-3,1.108560434E-3
2.604071645E0,1.374999993E-4,-1.099999994E-3,-1.374999993E-3,1.766219470E-3
2.606468335E0,-1.099999994E-3,1.237499993E-3,1.099999994E-3,1.987814430E-3
2.608864951E0,-1.099999994E-3,2.474999987E-3,2.337499987E-3,3.577643234E-3
2.611261797E0,1.374999993E-3,1.237499993E-3,1.099999994E-3,2.152215417E-3
2.613658376E0,1.374999993E-4,0.000000000E0,1.099999994E-3,1.108560434E-3
2.616055067E0,-1.099999994E-3,-1.099999994E-3,2.337499987E-3,2.807829440E-3
2.618451913E0,1.374999993E-4,0.000000000E0,1.099999994E-3,1.108560434E-3
2.620849759E0,-1.099999994E-3,1.237499993E-3,2.337499987E-3,2.864491650E-3
2.623245223E0,1.374999993E-3,0.000000000E0,1.099999994E-3,1.760859156E-3
2.625642091E0,1.374999993E-3,-1.099999994E-3,2.337499987E-3,2.926522024E-3
2.628038706E0,1.374999993E-4,-1.099999994E-3,2.337499987E-3,2.587047048E-3
2.630435398E0,1.374999993E-4,1.237499993E-3,1.099999994E-3,1.661418812E-3
2.632832245E0,-1.099999994E-3,-2.337499987E-3,1.099999994E-3,2.807829440E-3
2.635228862E0,1.374999993E-4,-1.099999994E-3,1.099999994E-3,1.561699787E-3
2.637625537E0,1.374999993E-4,-1.099999994E-3,1.099999994E-3,1.561699787E-3
2.640023384E0,-1.099999994E-3,1.237499993E-3,-1.374999993E-4,1.661418812E-3
2.642419001E0,-1.099999994E-3,0.000000000E0,-1.374999993E-4,1.108560434E-3
2.644815691E0,1.374999993E-4,2.474999987E-3,1.099999994E-3,2.711923887E-3
2.647212307E0,1.374999993E-4,0.000000000E0,1.099999994E-3,1.108560434E-3
2.649609139E0,1.374999993E-4,1.237499993E-3,2.337499987E-3,2.648437025E-3
2.652005756E0,1.374999993E-4,0.000000000E0,1.099999994E-3,1.108560434E-3
2.654402446E0,1.374999993E-4,2.474999987E-3,1.099999994E-3,2.711923887E-3
2.656799293E0,1.374999993E-4,0.000000000E0,1.099999994E-3,1.108560434E-3
2.659196908E0,1.374999993E-4,1.237499993E-3,2.337499987E-3,2.648437025E-3
2.661592592E0,1.374999993E-4,-2.337499987E-3,2.337499987E-3,3.308582571E-3
2.663989436E0,-1.099999994E-3,1.237499993E-3,-1.374999993E-4,1.661418812E-3
2.666386054E0,1.374999993E-4,0.000000000E0,2.337499987E-3,2.341540613E-3
2.668782669E0,-1.099999994E-3,0.000000000E0,-1.374999993E-4,1.108560434E-3
2.671179590E0,-1.099999994E-3,-2.337499987E-3,1.099999994E-3,2.807829440E-3
2.673576194E0,-1.099999994E-3,0.000000000E0,1.099999994E-3,1.555634910E-3
2.675972809E0,-1.099999994E-3,-3.574999981E-3,-1.374999993E-4,3.742930817E-3
2.678370730E0,-1.099999994E-3,1.237499993E-3,2.337499987E-3,2.864491650E-3
2.680766348E0,1.374999993E-4,0.000000000E0,1.099999994E-3,1.108560434E-3
2.683162961E0,1.374999993E-4,1.237499993E-3,2.337499987E-3,2.648437025E-3
2.685559678E0,1.374999993E-4,0.000000000E0,1.099999994E-3,1.108560434E-3
2.687956524E0,1.374999993E-3,1.237499993E-3,1.099999994E-3,2.152215417E-3
2.690353142E0,1.374999993E-3,-2.337499987E-3,2.337499987E-3,3.580284536E-3
2.692749832E0,1.374999993E-4,0.000000000E0,-1.374999993E-4,1.944543638E-4
2.695146678E0,1.374999993E-4,0.000000000E0,2.337499987E-3,2.341540613E-3
2.697544303E0,1.374999993E-4,0.000000000E0,-1.374999993E-4,1.944543638E-4
2.699939997E0,-1.099999994E-3,1.237499993E-3,-1.374999993E-4,1.661418812E-3
2.702336610E0,1.374999993E-4,1.237499993E-3,1.099999994E-3,1.661418812E-3
2.704733457E0,1.374999993E-4,0.000000000E0,1.099999994E-3,1.108560434E-3
2.707130151E0,-1.099999994E-3,-1.099999994E-3,-1.374999993E-4,1.561699787E-3
2.709526781E0,-1.099999994E-3,0.000000000E0,-1.374999993E-4,1.108560434E-3
2.711923625E0,1.374999993E-4,0.000000000E0,2.337499987E-3,2.341540613E-3
2.714320320E0,2.474999987E-3,0.000000000E0,1.099999994E-3,2.708435881E-3
2.716718164E0,1.374999993E-4,-1.099999994E-3,1.099999994E-3,1.561699787E-3
2.719113781E0,1.374999993E-4,0.000000000E0,2.337499987E-3,2.341540613E-3
2.721510481E0,1.374999993E-4,0.000000000E0,2.337499987E-3,2.341540613E-3
2.723907096E0,1.374999993E-4,1.237499993E-3,3.574999981E-3,3.785622451E-3
2.726303942E0,1.374999993E-3,-1.099999994E-3,1.099999994E-3,2.076204458E-3
2.728700636E0,-1.099999994E-3,0.000000000E0,1.099999994E-3,1.555634910E-3
2.731097252E0,-1.099999994E-3,0.000000000E0,-1.374999993E-4,1.108560434E-3
2.733494106E0,1.374999993E-4,0.000000000E0,1.099999994E-3,1.108560434E-3
2.735891952E0,-1.099999994E-3,0.000000000E0,-1.374999993E-4,1.108560434E-3
2.738287416E0,1.374999993E-4,1.237499993E-3,-1.374999993E-4,1.252684610E-3
2.740684029E0,1.374999993E-4,1.237499993E-3,1.099999994E-3,1.661418812E-3
2.743080875E0,1.374999993E-4,1.237499993E-3,1.099999994E-3,1.661418812E-3
2.745477560E0,-2.337499987E-3,1.237499993E-3,1.099999994E-3,2.864491650E-3
2.747874175E0,-2.337499987E-3,0.000000000E0,1.099999994E-3,2.583390442E-3
2.750271019E0,1.374999993E-4,1.237499993E-3,1.099999994E-3,1.661418812E-3
2.752667713E0,-1.099999994E-3,0.000000000E0,2.337499987E-3,2.583390442E-3
2.755065481E0,-1.099999994E-3,0.000000000E0,1.099999994E-3,1.555634910E-3
2.757460968E0,1.374999993E-4,0.000000000E0,-1.374999993E-4,1.944543638E-4
2.759857889E0,-1.099999994E-3,-1.099999994E-3,1.099999994E-3,1.905255878E-3
2.762254507E0,1.374999993E-4,0.000000000E0,1.099999994E-3,1.108560434E-3
2.764651122E0,-1.099999994E-3,0.000000000E0,1.099999994E-3,1.555634910E-3
2.767047966E0,-1.099999994E-3,0.000000000E0,1.099999994E-3,1.555634910E-3
2.769444676E0,1.374999993E-4,0.000000000E0,1.099999994E-3,1.108560434E-3
2.771841291E0,1.374999993E-3,-1.099999994E-3,1.099999994E-3,2.076204458E-3
2.774239366E0,1.374999993E-4,-2.337499987E-3,1.099999994E-3,2.587047048E-3
2.776634829E0,1.374999993E-4,-2.337499987E-3,1.099999994E-3,2.587047048E-3
2.779031443E0,1.374999993E-4,-1.099999994E-3,1.099999994E-3,1.561699787E-3
2.781428313E0,-1.099999994E-3,0.000000000E0,1.099999994E-3,1.555634910E-3
2.783825007E0,-1.099999994E-3,-1.099999994E-3,-1.374999993E-4,1.561699787E-3
2.786221623E0,1.374999993E-3,-1.099999994E-3,1.099999994E-3,2.076204458E-3
2.788618467E0,-1.099999994E-3,0.000000000E0,1.099999994E-3,1.555634910E-3
2.791015084E0,-1.099999994E-3,-1.099999994E-3,2.337499987E-3,2.807829440E-3
2.793413019E0,-1.099999994E-3,-1.099999994E-3,2.337499987E-3,2.807829440E-3
2.795808637E0,-2.337499987E-3,0.000000000E0,2.337499987E-3,3.305724184E-3
2.798205250E0,1.374999993E-4,1.237499993E-3,1.099999994E-3,1.661418812E-3
2.800601942E0,1.374999993E-4,0.000000000E0,2.337499987E-3,2.341540613E-3
2.802998789E0,1.374999993E-4,0.000000000E0,-1.374999993E-4,1.944543638E-4
2.805395411E0,1.374999993E-4,0.000000000E0,1.099999994E-3,1.108560434E-3
2.807792101E0,1.374999993E-4,0.000000000E0,2.337499987E-3,2.341540613E-3
2.810188947E0,1.374999993E-3,0.000000000E0,1.099999994E-3,1.760859156E-3
2.812586794E0,1.374999993E-4,0.000000000E0,1.099999994E-3,1.108560434E-3
2.814982257E0,1.374999993E-3,-2.337499987E-3,1.099999994E-3,2.926522024E-3
2.817378851E0,2.474999987E-3,1.237499993E-3,2.337499987E-3,3.622283445E-3
2.819775697E0,1.374999993E-3,-1.099999994E-3,-1.374999993E-4,1.766219470E-3
2.822172391E0,1.374999993E-4,0.000000000E0,1.099999994E-3,1.108560434E-3
2.824569006E0,-1.099999994E-3,0.000000000E0,1.099999994E-3,1.555634910E-3
2.826965851E0,1.374999993E-4,2.474999987E-3,1.099999994E-3,2.711923887E-3
2.829362478E0,1.374999993E-4,1.237499993E-3,1.099999994E-3,1.661418812E-3
2.831760399E0,1.374999993E-4,0.000000000E0,1.099999994E-3,1.108560434E-3
2.834156016E0,1.374999993E-4,0.000000000E0,2.337499987E-3,2.341540613E-3
2.836552630E0,1.374999993E-4,2.474999987E-3,2.337499987E-3,3.407115697E-3
2.838949322E0,1.374999993E-4,0.000000000E0,1.099999994E-3,1.108560434E-3
2.841346221E0,2.474999987E-3,1.237499993E-3,2.337499987E-3,3.622283445E-3
2.843742839E0,1.374999993E-3,0.000000000E0,-1.374999993E-4,1.381857890E-3
2.846139454E0,1.374999993E-4,0.000000000E0,-1.374999993E-4,1.944543638E-4
2.848536144E0,2.474999987E-3,0.000000000E0,2.337499987E-3,3.404340042E-3
2.850933991E0,1.374999993E-4,-1.099999994E-3,1.099999994E-3,1.561699787E-3
2.853329608E0,1.374999993E-4,0.000000000E0,-1.374999993E-3,1.381857890E-3
2.855726298E0,1.374999993E-3,-1.099999994E-3,1.099999994E-3,2.076204458E-3
2.858123144E0,1.374999993E-3,-1.099999994E-3,-1.374999993E-4,1.766219470E-3
2.860519839E0,1.374999993E-4,-1.099999994E-3,1.099999994E-3,1.561699787E-3
2.862916454E0,1.374999993E-4,0.000000000E0,3.574999981E-3,3.577643234E-3
2.865313298E0,-1.099999994E-3,0.000000000E0,2.337499987E-3,2.583390442E-3
2.867709916E0,1.374999993E-3,0.000000000E0,2.337499987E-3,2.711923887E-3
2.870107837E0,1.374999993E-4,0.000000000E0,1.099999994E-3,1.108560434E-3
2.872503454E0,1.374999993E-3,0.000000000E0,1.099999994E-3,1.760859156E-3
2.874900068E0,1.374999993E-4,0.000000000E0,2.337499987E-3,2.341540613E-3
2.877296760E0,1.374999993E-4,0.000000000E0,2.337499987E-3,2.341540613E-3
2.879693606E0,-1.099999994E-3,-1.099999994E-3,2.337499987E-3,2.807829440E-3
2.882090223E0,1.374999993E-4,0.000000000E0,-1.374999993E-4,1.944543638E-4
2.884486914E0,2.474999987E-3,-3.574999981E-3,-1.374999993E-3,4.560359062E-3
2.886883531E0,1.374999993E-4,0.000000000E0,1.099999994E-3,1.108560434E-3
2.889281601E0,1.374999993E-4,0.000000000E0,-1.374999993E-4,1.944543638E-4
2.891677065E0,-2.337499987E-3,1.237499993E-3,1.099999994E-3,2.864491650E-3
2.894073678E0,1.374999993E-3,0.000000000E0,-1.374999993E-4,1.381857890E-3
2.896470524E0,1.374999993E-4,-1.099999994E-3,1.099999994E-3,1.561699787E-3
2.898867218E0,-1.099999994E-3,0.000000000E0,2.337499987E-3,2.583390442E-3
2.901263810E0,1.374999993E-4,0.000000000E0,2.337499987E-3,2.341540613E-3
2.903660654E0,1.374999993E-4,0.000000000E0,-1.374999993E-4,1.944543638E-4
2.906057348E0,1.374999993E-4,0.000000000E0,-1.374999993E-4,1.944543638E-4
2.908455116E0,-1.099999994E-3,-1.099999994E-3,2.337499987E-3,2.807829440E-3
2.910850579E0,-1.099999994E-3,-1.099999994E-3,1.099999994E-3,1.905255878E-3
2.913247500E0,-1.099999994E-3,0.000000000E0,-1.374999993E-4,1.108560434E-3
2.915644118E0,1.374999993E-4,1.237499993E-3,1.099999994E-3,1.661418812E-3
2.918040733E0,-1.099999994E-3,1.237499993E-3,-1.374999993E-4,1.661418812E-3
2.920437577E0,-1.099999994E-3,0.000000000E0,-1.374999993E-4,1.108560434E-3
2.922834271E0,-1.099999994E-3,0.000000000E0,1.099999994E-3,1.555634910E-3
2.925230892E0,1.374999993E-4,-1.099999994E-3,-1.374999993E-4,1.117055275E-3
2.927628967E0,1.374999993E-4,-2.337499987E-3,-1.374999993E-4,2.345574277E-3
2.930024435E0,-1.099999994E-3,-2.337499987E-3,2.337499987E-3,3.483936332E-3
2.932421049E0,1.374999993E-4,1.237499993E-3,2.337499987E-3,2.648437025E-3
2.934817664E0,1.374999993E-4,-1.099999994E-3,1.099999994E-3,1.561699787E-3
2.937214587E0,1.374999993E-4,1.237499993E-3,1.099999994E-3,1.661418812E-3
2.939611205E0,1.374999993E-4,0.000000000E0,2.337499987E-3,2.341540613E-3
2.942008049E0,1.374999993E-3,0.000000000E0,1.099999994E-3,1.760859156E-3
2.944404666E0,1.374999993E-4,0.000000000E0,-1.374999993E-4,1.944543638E-4
2.946802510E0,1.374999993E-4,0.000000000E0,-1.374999993E-4,1.944543638E-4
2.949198200E0,1.374999993E-3,0.000000000E0,-1.374999993E-4,1.381857890E-3
2.951594813E0,2.474999987E-3,0.000000000E0,1.099999994E-3,2.708435881E-3
2.953991505E0,1.374999993E-4,0.000000000E0,-1.374999993E-4,1.944543638E-4
2.956388123E0,1.374999993E-4,-1.099999994E-3,-1.374999993E-4,1.117055275E-3
2.958784967E0,-1.099999994E-3,0.000000000E0,-1.374999993E-4,1.108560434E-3
2.961181656E0,1.374999993E-4,-1.099999994E-3,-1.374999993E-4,1.117055275E-3
2.963578272E0,1.374999993E-4,2.474999987E-3,-1.374999993E-4,2.482627123E-3
2.965976346E0,-1.099999994E-3,-2.337499987E-3,-1.374999993E-4,2.587047048E-3
2.968371810E0,1.374999993E-4,1.237499993E-3,1.099999994E-3,1.661418812E-3
2.970768423E0,-1.099999994E-3,-1.099999994E-3,1.099999994E-3,1.905255878E-3
2.973165256E0,1.374999993E-3,0.000000000E0,-1.374999993E-4,1.381857890E-3
2.975561873E0,1.374999993E-3,1.237499993E-3,2.337499987E-3,2.980928950E-3
2.977958563E0,1.374999993E-4,0.000000000E0,2.337499987E-3,2.341540613E-3
2.980355409E0,1.374999993E-4,-1.099999994E-3,2.337499987E-3,2.587047048E-3
2.982752027E0,1.237499993E-3,0.000000000E0,1.099999994E-3,1.655719246E-3
2.985149938E0,1.237499993E-3,0.000000000E0,1.099999994E-3,1.655719246E-3
2.987545555E0,1.237499993E-3,1.237499993E-3,1.099999994E-3,2.067078241E-3
2.989942169E0,1.374999993E-4,0.000000000E0,1.099999994E-3,1.108560434E-3
2.992338861E0,1.374999993E-4,1.237499993E-3,2.337499987E-3,2.648437025E-3
2.994735707E0,1.237499993E-3,-1.099999994E-3,1.099999994E-3,1.987814430E-3
2.997132335E0,-1.099999994E-3,-1.099999994E-3,1.099999994E-3,1.905255878E-3
2.999528950E0,1.374999993E-4,-2.337499987E-3,-1.374999993E-4,2.345574277E-3
3.001925871E0,1.374999993E-4,0.000000000E0,-1.374999993E-4,1.944543638E-4
3.004323486E0,1.374999993E-4,0.000000000E0,1.099999994E-3,1.108560434E-3
3.006719104E0,1.374999993E-4,1.237499993E-3,-1.374999993E-4,1.252684610E-3
3.009115794E0,1.374999993E-4,-1.099999994E-3,2.337499987E-3,2.587047048E-3
3.011512640E0,1.374999993E-4,0.000000000E0,-1.374999993E-4,1.944543638E-4
3.013909258E0,1.374999993E-4,0.000000000E0,-1.374999993E-4,1.944543638E-4
3.016305948E0,1.374999993E-4,0.000000000E0,1.099999994E-3,1.108560434E-3
3.018702794E0,-1.099999994E-3,-1.099999994E-3,1.099999994E-3,1.905255878E-3
3.021099396E0,1.237499993E-3,1.237499993E-3,2.337499987E-3,2.920054564E-3
3.023497318E0,1.374999993E-4,0.000000000E0,1.099999994E-3,1.108560434E-3
3.025892935E0,-1.099999994E-3,0.000000000E0,1.099999994E-3,1.555634910E-3
3.028289548E0,-1.099999994E-3,0.000000000E0,1.099999994E-3,1.555634910E-3
3.030686241E0,1.374999993E-4,1.237499993E-3,2.337499987E-3,2.648437025E-3
3.033082844E0,1.374999993E-4,-1.099999994E-3,-1.374999993E-4,1.117055275E-3
3.035479688E0,1.374999993E-4,-1.099999994E-3,2.337499987E-3,2.587047048E-3
3.037876383E0,-1.099999994E-3,-1.099999994E-3,2.337499987E-3,2.807829440E-3
3.040272998E0,1.374999993E-4,2.474999987E-3,1.099999994E-3,2.711923887E-3
3.042670842E0,1.374999993E-4,-1.099999994E-3,2.337499987E-3,2.587047048E-3
3.045066536E0,-1.099999994E-3,0.000000000E0,-1.374999993E-4,1.108560434E-3
3.047463150E0,1.374999993E-4,-1.099999994E-3,1.099999994E-3,1.561699787E-3
3.049859996E0,1.237499993E-3,2.474999987E-3,1.099999994E-3,2.977756060E-3
3.052256690E0,1.237499993E-3,0.000000000E0,2.337499987E-3,2.644865294E-3
3.054653306E0,-2.337499987E-3,1.237499993E-3,2.337499987E-3,3.529761835E-3
3.057050145E0,-1.099999994E-3,-1.099999994E-3,1.099999994E-3,1.905255878E-3
3.059446839E0,1.374999993E-4,0.000000000E0,1.099999994E-3,1.108560434E-3
3.061844683E0,-1.099999994E-3,-1.099999994E-3,1.099999994E-3,1.905255878E-3
3.064240301E0,-1.099999994E-3,0.000000000E0,1.099999994E-3,1.555634910E-3
3.066636914E0,-1.099999994E-3,0.000000000E0,1.099999994E-3,1.555634910E-3
3.069033581E0,1.374999993E-4,-1.099999994E-3,-1.374999993E-4,1.117055275E-3
3.071430198E0,-1.099999994E-3,0.000000000E0,2.337499987E-3,2.583390442E-3
3.073827043E0,1.374999993E-4,0.000000000E0,2.337499987E-3,2.341540613E-3
3.076223737E0,-1.099999994E-3,-1.099999994E-3,2.337499987E-3,2.807829440E-3
3.078620353E0,-1.099999994E-3,0.000000000E0,1.099999994E-3,1.555634910E-3
3.081018433E0,1.374999993E-4,0.000000000E0,-1.374999993E-4,1.944543638E-4
3.083413896E0,1.237499993E-3,0.000000000E0,2.337499987E-3,2.644865294E-3
3.085810509E0,1.237499993E-3,1.237499993E-3,1.099999994E-3,2.067078241E-3
3.088207356E0,1.374999993E-4,1.237499993E-3,1.099999994E-3,1.661418812E-3
3.090603973E0,1.374999993E-4,1.237499993E-3,1.099999994E-3,1.661418812E-3
3.093000672E0,1.374999993E-4,-1.099999994E-3,-1.374999993E-4,1.117055275E-3
3.095397519E0,-1.099999994E-3,0.000000000E0,1.099999994E-3,1.555634910E-3
3.097794136E0,-1.099999994E-3,-1.099999994E-3,1.099999994E-3,1.905255878E-3
3.100191980E0,1.374999993E-4,0.000000000E0,2.337499987E-3,2.341540613E-3
3.102587444E0,-1.099999994E-3,-1.099999994E-3,1.099999994E-3,1.905255878E-3
3.104984293E0,1.374999993E-4,0.000000000E0,1.099999994E-3,1.108560434E-3
3.107380985E0,1.374999993E-4,0.000000000E0,3.574999981E-3,3.577643234E-3
3.109777831E0,1.374999993E-4,0.000000000E0,2.337499987E-3,2.341540613E-3
3.112174449E0,1.374999993E-4,1.237499993E-3,1.099999994E-3,1.661418812E-3
3.114571139E0,1.374999993E-4,0.000000000E0,-1.374999993E-4,1.944543638E-4
3.116967766E0,1.374999993E-4,-1.099999994E-3,1.099999994E-3,1.561699787E-3
3.119365610E0,1.374999993E-4,0.000000000E0,2.337499987E-3,2.341540613E-3
3.121761305E0,1.237499993E-3,0.000000000E0,-1.374999993E-4,1.245115450E-3
3.124157918E0,1.237499993E-3,2.474999987E-3,-1.374999993E-4,2.770548216E-3
3.126554764E0,-1.099999994E-3,-1.099999994E-3,2.337499987E-3,2.807829440E-3
3.128951382E0,-1.099999994E-3,-1.099999994E-3,-1.374999993E-4,1.561699787E-3
3.131348072E0,-1.099999994E-3,-2.337499987E-3,1.099999994E-3,2.807829440E-3
3.133744918E0,1.237499993E-3,1.237499993E-3,1.099999994E-3,2.067078241E-3
3.136141536E0,1.374999993E-4,1.237499993E-3,-1.374999993E-4,1.252684610E-3
3.138539457E0,-1.099999994E-3,1.237499993E-3,-1.374999993E-4,1.661418812E-3
3.140935064E0,-1.099999994E-3,0.000000000E0,1.099999994E-3,1.555634910E-3
3.143331677E0,1.374999993E-4,1.237499993E-3,1.099999994E-3,1.661418812E-3
3.145728370E0,1.374999993E-4,-2.337499987E-3,1.099999994E-3,2.587047048E-3
3.148125216E0,1.237499993E-3,0.000000000E0,2.337499987E-3,2.644865294E-3
3.150521833E0,1.374999993E-4,1.237499993E-3,1.099999994E-3,1.661418812E-3
3.152918449E0,1.374999993E-4,0.000000000E0,1.099999994E-3,1.108560434E-3
3.155315370E0,-1.099999994E-3,1.237499993E-3,-1.374999993E-4,1.661418812E-3
3.157712985E0,1.237499993E-3,0.000000000E0,-1.374999993E-4,1.245115450E-3
3.160108603E0,1.237499993E-3,1.237499993E-3,1.099999994E-3,2.067078241E-3
3.162505293E0,1.374999993E-4,0.000000000E0,2.337499987E-3,2.341540613E-3
3.164902129E0,1.237499993E-3,0.000000000E0,1.099999994E-3,1.655719246E-3
3.167298746E0,1.374999993E-4,0.000000000E0,1.099999994E-3,1.108560434E-3
3.169695437E0,1.374999993E-4,0.000000000E0,1.099999994E-3,1.108560434E-3
3.172092283E0,1.374999993E-4,-2.337499987E-3,2.337499987E-3,3.308582571E-3
3.174488900E0,1.237499993E-3,1.237499993E-3,1.099999994E-3,2.067078241E-3
3.176886754E0,1.374999993E-4,1.237499993E-3,-1.374999993E-4,1.252684610E-3
3.179282218E0,1.374999993E-4,-1.099999994E-3,-1.374999993E-4,1.117055275E-3
3.181679062E0,1.237499993E-3,0.000000000E0,1.099999994E-3,1.655719246E-3
3.184075754E0,1.237499993E-3,0.000000000E0,1.099999994E-3,1.655719246E-3
3.186472372E0,-1.099999994E-3,-1.099999994E-3,-1.374999993E-4,1.561699787E-3
3.188869211E0,-1.099999994E-3,0.000000000E0,-1.374999993E-3,1.760859156E-3
3.191265905E0,1.374999993E-4,-2.337499987E-3,1.099999994E-3,2.587047048E-3
3.193662521E0,1.374999993E-4,0.000000000E0,-1.374999993E-4,1.944543638E-4
3.196060596E0,-1.099999994E-3,0.000000000E0,1.099999994E-3,1.555634910E-3
3.198456059E0,1.374999993E-4,1.237499993E-3,2.337499987E-3,2.648437025E-3
3.200852687E0,1.237499993E-3,0.000000000E0,1.099999994E-3,1.655719246E-3
3.203249533E0,1.237499993E-3,1.237499993E-3,-1.374999993E-4,1.755482474E-3
3.205646227E0,1.374999993E-4,-2.337499987E-3,-1.374999993E-4,2.345574277E-3
3.208042842E0,-2.337499987E-3,0.000000000E0,2.337499987E-3,3.305724184E-3
3.210439687E0,1.374999993E-4,-1.099999994E-3,1.099999994E-3,1.561699787E-3
3.212836295E0,1.237499993E-3,-1.099999994E-3,1.099999994E-3,1.987814430E-3
3.215234216E0,1.374999993E-4,1.237499993E-3,-1.374999993E-4,1.252684610E-3
3.217629603E0,-1.099999994E-3,0.000000000E0,1.099999994E-3,1.555634910E-3
3.220026524E0,1.237499993E-3,0.000000000E0,1.099999994E-3,1.655719246E-3
3.222423141E0,1.374999993E-4,1.237499993E-3,-1.374999993E-4,1.252684610E-3
3.224819742E0,-1.099999994E-3,0.000000000E0,1.099999994E-3,1.555634910E-3
3.227216586E0,-1.099999994E-3,0.000000000E0,-1.374999993E-4,1.108560434E-3
3.229613280E0,1.374999993E-4,0.000000000E0,-1.374999993E-4,1.944543638E-4
3.232009895E0,1.374999993E-4,-1.099999994E-3,1.099999994E-3,1.561699787E-3
3.234407970E0,1.374999993E-4,0.000000000E0,-1.374999993E-4,1.944543638E-4
3.236803434E0,-1.099999994E-3,1.237499993E-3,1.099999994E-3,1.987814430E-3
3.239200047E0,-1.099999994E-3,0.000000000E0,1.099999994E-3,1.555634910E-3
3.241596893E0,1.374999993E-4,0.000000000E0,2.337499987E-3,2.341540613E-3
3.243993588E0,1.374999993E-4,-1.099999994E-3,1.099999994E-3,1.561699787E-3
3.246390203E0,1.374999993E-4,0.000000000E0,-1.374999993E-3,1.381857890E-3
3.248787047E0,-1.099999994E-3,-1.099999994E-3,-1.374999993E-4,1.561699787E-3
3.251183665E0,1.374999993E-4,1.237499993E-3,1.099999994E-3,1.661418812E-3
3.253581586E0,1.374999993E-4,1.237499993E-3,2.337499987E-3,2.648437025E-3
3.255977203E0,-1.099999994E-3,0.000000000E0,-1.374999993E-4,1.108560434E-3
3.258373817E0,1.374999993E-4,-1.099999994E-3,-1.374999993E-3,1.766219470E-3
3.260770519E0,1.374999993E-4,1.237499993E-3,-1.374999993E-4,1.252684610E-3
3.263167365E0,1.237499993E-3,-1.099999994E-3,-1.374999993E-4,1.661418812E-3
3.265563982E0,1.374999993E-4,1.237499993E-3,-1.374999993E-4,1.252684610E-3
3.267960598E0,1.237499993E-3,0.000000000E0,-1.374999993E-3,1.849873296E-3
3.270357519E0,1.237499993E-3,1.237499993E-3,1.099999994E-3,2.067078241E-3
3.272755393E0,-1.099999994E-3,-1.099999994E-3,-1.374999993E-4,1.561699787E-3
3.275150780E0,1.237499993E-3,2.474999987E-3,-1.374999993E-4,2.770548216E-3
3.277547470E0,1.237499993E-3,-1.099999994E-3,1.099999994E-3,1.987814430E-3
3.279944316E0,-1.099999994E-3,0.000000000E0,-1.374999993E-4,1.108560434E-3
3.282340934E0,1.374999993E-4,-1.099999994E-3,-1.374999993E-3,1.766219470E-3
3.284737615E0,1.374999993E-4,1.237499993E-3,-1.374999993E-4,1.252684610E-3
3.287134461E0,1.374999993E-4,0.000000000E0,1.099999994E-3,1.108560434E-3
3.289531078E0,-1.099999994E-3,1.237499993E-3,-1.374999993E-4,1.661418812E-3
3.291929000E0,-1.099999994E-3,0.000000000E0,1.099999994E-3,1.555634910E-3
3.294324617E0,1.374999993E-4,0.000000000E0,-1.374999993E-4,1.944543638E-4
3.296721230E0,1.237499993E-3,-1.099999994E-3,-1.374999993E-4,1.661418812E-3
3.299117923E0,1.374999993E-4,0.000000000E0,-1.374999993E-4,1.944543638E-4
3.301514540E0,1.374999993E-4,1.237499993E-3,-1.374999993E-4,1.252684610E-3
3.303911384E0,1.237499993E-3,0.000000000E0,-1.374999993E-4,1.245115450E-3
3.306308078E0,-1.099999994E-3,0.000000000E0,2.337499987E-3,2.583390442E-3
3.308704918E0,-1.099999994E-3,0.000000000E0,1.099999994E-3,1.555634910E-3
3.311102764E0,1.374999993E-4,1.237499993E-3,1.099999994E-3,1.661418812E-3
3.313498227E0,-1.099999994E-3,-1.099999994E-3,1.099999994E-3,1.905255878E-3
3.315894841E0,-1.099999994E-3,1.237499993E-3,-1.374999993E-4,1.661418812E-3
3.318291687E0,1.237499993E-3,-1.099999994E-3,-1.374999993E-4,1.661418812E-3
3.320688376E0,1.374999993E-4,0.000000000E0,-1.374999993E-4,1.944543638E-4
3.323084992E0,1.374999993E-4,-1.099999994E-3,-1.374999993E-4,1.117055275E-3
3.325481836E0,1.374999993E-4,-1.099999994E-3,-1.374999993E-4,1.117055275E-3
3.327878530E0,1.374999993E-4,-2.337499987E-3,1.099999994E-3,2.587047048E-3
3.330276374E0,1.374999993E-4,-1.099999994E-3,1.099999994E-3,1.561699787E-3
3.332671987E0,1.374999993E-4,-1.099999994E-3,1.099999994E-3,1.561699787E-3
3.335068677E0,1.374999993E-4,0.000000000E0,1.099999994E-3,1.108560434E-3
3.337465292E0,1.374999993E-4,-1.099999994E-3,1.099999994E-3,1.561699787E-3
3.339861908E0,1.374999993E-4,-1.099999994E-3,-1.374999993E-4,1.117055275E-3
3.342258831E0,1.374999993E-4,0.000000000E0,-1.374999993E-4,1.944543638E-4
3.344655458E0,1.237499993E-3,2.474999987E-3,-1.374999993E-4,2.770548216E-3
3.347052074E0,1.237499993E-3,-1.099999994E-3,1.099999994E-3,1.987814430E-3
3.349450148E0,1.374999993E-4,3.712499980E-3,1.099999994E-3,3.874475750E-3
3.351845612E0,-1.099999994E-3,4.949999973E-3,-1.374999993E-4,5.072613328E-3
3.354242225E0,1.237499993E-3,1.237499993E-3,-1.374999993E-4,1.755482474E-3
3.356639082E0,-1.099999994E-3,1.237499993E-3,1.099999994E-3,1.987814430E-3
3.359035776E0,1.374999993E-4,-4.812499974E-3,-1.374999993E-4,4.816426943E-3
3.361432391E0,-1.099999994E-3,-6.049999967E-3,-1.374999993E-4,6.150724009E-3
3.363829235E0,1.237499993E-3,-9.762499481E-3,2.337499987E-3,1.011443071E-2
3.366225853E0,2.474999987E-3,-3.574999981E-3,1.099999994E-3,4.485114244E-3
3.368623774E0,1.237499993E-3,-1.086249948E-2,1.099999994E-3,1.098796164E-2
3.371019391E0,1.237499993E-3,0.000000000E0,-1.374999993E-4,1.245115450E-3
3.373416005E0,1.374999993E-4,0.000000000E0,1.099999994E-3,1.108560434E-3
3.375812697E0,-1.099999994E-3,0.000000000E0,-1.374999993E-3,1.760859156E-3
3.378209543E0,-1.099999994E-3,0.000000000E0,-2.474999987E-3,2.708435881E-3
3.380606151E0,1.374999993E-4,-1.099999994E-3,1.099999994E-3,1.561699787E-3
3.383002841E0,-1.099999994E-3,2.474999987E-3,-1.374999993E-4,2.711923887E-3
3.385399687E0,-2.337499987E-3,0.000000000E0,-1.374999993E-4,2.341540613E-3
3.387797533E0,-1.099999994E-3,9.899999946E-3,-1.374999993E-4,9.961872574E-3
3.390192997E0,-2.337499987E-3,-1.099999994E-3,-1.374999993E-4,2.587047048E-3
3.392589826E0,-1.099999994E-3,0.000000000E0,-1.374999993E-4,1.108560434E-3
3.394986441E0,1.374999993E-4,-2.337499987E-3,-1.374999993E-4,2.345574277E-3
3.397383134E0,-1.099999994E-3,2.474999987E-3,-1.374999993E-4,2.711923887E-3
3.399779751E0,-1.099999994E-3,-3.574999981E-3,1.099999994E-3,3.898797871E-3
3.402176595E0,1.374999993E-4,1.237499993E-3,1.099999994E-3,1.661418812E-3
3.404573233E0,1.237499993E-3,-2.337499987E-3,1.099999994E-3,2.864491650E-3
3.406971154E0,1.374999993E-4,1.237499993E-3,-1.374999993E-4,1.252684610E-3
3.409366771E0,1.237499993E-3,-1.099999994E-3,1.099999994E-3,1.987814430E-3
3.411763384E0,1.237499993E-3,2.474999987E-3,-1.374999993E-4,2.770548216E-3
3.414160077E0,1.374999993E-4,-1.099999994E-3,-1.374999993E-4,1.117055275E-3
3.416556913E0,1.374999993E-4,1.237499993E-3,1.099999994E-3,1.661418812E-3
3.418953530E0,1.237499993E-3,-2.337499987E-3,-1.374999993E-4,2.648437025E-3
3.421350221E0,1.374999993E-4,0.000000000E0,1.099999994E-3,1.108560434E-3
3.423747067E0,-1.099999994E-3,-1.099999994E-3,-1.374999993E-4,1.561699787E-3
3.426144913E0,1.374999993E-4,3.712499980E-3,-1.374999993E-4,3.717589084E-3
3.428540390E0,3.712499980E-3,-1.099999994E-3,-1.374999993E-3,4.108926997E-3
3.430937235E0,1.237499993E-3,0.000000000E0,1.099999994E-3,1.655719246E-3
3.433333850E0,1.374999993E-4,-1.209999993E-2,1.099999994E-3,1.215067507E-2
3.435730542E0,1.374999993E-4,-2.337499987E-3,-1.374999993E-4,2.345574277E-3
3.438127160E0,1.237499993E-3,-4.812499974E-3,-1.374999993E-4,4.970962531E-3
3.440524043E0,1.374999993E-4,-4.812499974E-3,1.099999994E-3,4.938528347E-3
3.442920737E0,1.237499993E-3,-7.287499961E-3,1.099999994E-3,7.473222992E-3
3.445318581E0,2.474999987E-3,1.237499993E-3,1.099999994E-3,2.977756060E-3
3.447714199E0,1.374999993E-4,-3.574999981E-3,-1.374999993E-4,3.580284536E-3
3.450110889E0,-1.099999994E-3,7.424999960E-3,1.099999994E-3,7.586212782E-3
3.452507538E0,1.374999993E-4,6.187499966E-3,-1.374999993E-4,6.190554768E-3
3.454904154E0,1.374999993E-4,3.712499980E-3,-1.374999993E-3,3.961336559E-3
3.457301000E0,1.374999993E-4,0.000000000E0,1.099999994E-3,1.108560434E-3
3.459697694E0,1.237499993E-3,0.000000000E0,-1.374999993E-4,1.245115450E-3
3.462094310E0,-1.099999994E-3,0.000000000E0,-1.374999993E-4,1.108560434E-3
3.464492347E0,1.374999993E-4,-1.099999994E-3,-1.374999993E-4,1.117055275E-3
3.466887810E0,1.237499993E-3,-1.099999994E-3,1.099999994E-3,1.987814430E-3
3.469284424E0,1.374999993E-4,-3.574999981E-3,1.099999994E-3,3.742930817E-3
3.471681270E0,2.474999987E-3,-9.762499481E-3,-1.374999993E-4,1.007228511E-2
3.474077964E0,1.237499993E-3,1.237499993E-3,-1.374999993E-4,1.755482474E-3
3.476474579E0,1.374999993E-4,-1.099999994E-3,1.099999994E-3,1.561699787E-3
3.478871424E0,1.374999993E-4,-1.099999994E-3,-1.374999993E-4,1.117055275E-3
3.481268118E0,-1.099999994E-3,1.237499993E-3,-1.374999993E-4,1.661418812E-3
3.483665962E0,-1.099999994E-3,-1.099999994E-3,-1.374999993E-3,2.076204458E-3
3.486061579E0,1.374999993E-4,1.237499993E-3,-1.374999993E-4,1.252684610E-3
3.488458255E0,1.374999993E-4,1.237499993E-3,-1.374999993E-4,1.252684610E-3
3.490854870E0,1.237499993E-3,1.237499993E-3,-1.374999993E-4,1.755482474E-3
3.493251716E0,1.374999993E-4,-1.099999994E-3,-1.374999993E-4,1.117055275E-3
3.495648334E0,1.374999993E-4,1.237499993E-3,-1.374999993E-4,1.252684610E-3
3.498045024E0,1.237499993E-3,0.000000000E0,1.099999994E-3,1.655719246E-3
3.500441875E0,-1.099999994E-3,0.000000000E0,-1.374999993E-4,1.108560434E-3
3.502839721E0,-2.337499987E-3,-1.099999994E-3,-1.374999993E-4,2.587047048E-3
3.505235185E0,1.374999993E-4,-1.099999994E-3,1.099999994E-3,1.561699787E-3
3.507632029E0,-1.099999994E-3,0.000000000E0,-1.374999993E-4,1.108560434E-3
3.510028644E0,-1.099999994E-3,0.000000000E0,1.099999994E-3,1.555634910E-3
3.512425337E0,-1.099999994E-3,-2.337499987E-3,-1.374999993E-4,2.587047048E-3
3.514822183E0,1.237499993E-3,0.000000000E0,1.099999994E-3,1.655719246E-3
3.517218800E0,1.237499993E-3,-1.099999994E-3,-1.374999993E-4,1.661418812E-3
3.519615416E0,1.374999993E-4,-1.099999994E-3,-1.374999993E-3,1.766219470E-3
3.522013337E0,-2.337499987E-3,0.000000000E0,1.099999994E-3,2.583390442E-3
3.524408954E0,-1.099999994E-3,-1.099999994E-3,1.099999994E-3,1.905255878E-3
3.526805568E0,-1.099999994E-3,0.000000000E0,1.099999994E-3,1.555634910E-3
3.529202260E0,-1.099999994E-3,1.237499993E-3,1.099999994E-3,1.987814430E-3
3.531599106E0,1.374999993E-4,1.237499993E-3,1.099999994E-3,1.661418812E-3
3.533995723E0,1.374999993E-4,0.000000000E0,1.099999994E-3,1.108560434E-3
3.536392405E0,1.374999993E-4,0.000000000E0,-1.374999993E-4,1.944543638E-4
3.538789251E0,-1.099999994E-3,1.237499993E-3,-1.374999993E-4,1.661418812E-3
3.541187097E0,1.374999993E-4,2.474999987E-3,-1.374999993E-4,2.482627123E-3
3.543582561E0,1.374999993E-4,1.237499993E-3,-1.374999993E-4,1.252684610E-3
3.545979174E0,-1.099999994E-3,0.000000000E0,1.099999994E-3,1.555634910E-3
3.548376019E0,1.237499993E-3,-1.099999994E-3,-1.374999993E-4,1.661418812E-3
3.550772713E0,-1.099999994E-3,0.000000000E0,-1.374999993E-4,1.108560434E-3
3.553169329E0,-1.099999994E-3,0.000000000E0,-1.374999993E-4,1.108560434E-3
3.555566173E0,1.237499993E-3,1.237499993E-3,-1.374999993E-4,1.755482474E-3
3.557962867E0,2.474999987E-3,1.237499993E-3,-1.374999993E-4,2.770548216E-3
3.560360721E0,2.474999987E-3,2.474999987E-3,-1.374999993E-4,3.502878262E-3
3.562756339E0,1.374999993E-4,1.237499993E-3,-1.374999993E-4,1.252684610E-3
3.565153029E0,1.374999993E-4,1.237499993E-3,-1.374999993E-4,1.252684610E-3
3.567549645E0,1.374999993E-4,-1.099999994E-3,1.099999994E-3,1.561699787E-3
3.569946491E0,-1.099999994E-3,9.899999946E-3,-1.374999993E-4,9.961872574E-3
3.572343199E0,1.237499993E-3,0.000000000E0,-1.374999993E-3,1.849873296E-3
3.574739814E0,2.474999987E-3,2.474999987E-3,1.099999994E-3,3.668957598E-3
3.577136659E0,1.374999993E-4,-3.574999981E-3,-1.374999993E-4,3.580284536E-3
3.579534505E0,-1.099999994E-3,1.237499993E-3,-1.374999993E-4,1.661418812E-3
3.581929968E0,1.237499993E-3,-2.337499987E-3,-1.374999993E-4,2.648437025E-3
3.584326568E0,1.374999993E-4,1.237499993E-3,-1.374999993E-4,1.252684610E-3
3.586723414E0,1.374999993E-4,-2.337499987E-3,1.099999994E-3,2.587047048E-3
3.589120108E0,-1.099999994E-3,0.000000000E0,-1.374999993E-4,1.108560434E-3
3.591516724E0,1.374999993E-4,-1.099999994E-3,-1.374999993E-4,1.117055275E-3
3.593913568E0,1.374999993E-4,1.237499993E-3,-1.374999993E-4,1.252684610E-3
3.596310262E0,-1.099999994E-3,-2.337499987E-3,-1.374999993E-4,2.587047048E-3
3.598708106E0,1.374999993E-4,1.237499993E-3,-1.374999993E-4,1.252684610E-3
3.601103724E0,-1.099999994E-3,-1.099999994E-3,1.099999994E-3,1.905255878E-3
3.603500414E0,1.374999993E-4,0.000000000E0,-1.374999993E-4,1.944543638E-4
3.605897029E0,1.374999993E-4,-1.099999994E-3,-1.374999993E-3,1.766219470E-3
3.608293889E0,1.374999993E-4,-1.099999994E-3,-1.374999993E-4,1.117055275E-3
3.610690584E0,1.374999993E-4,-1.099999994E-3,-1.374999993E-3,1.766219470E-3
3.613087199E0,1.374999993E-4,0.000000000E0,-1.374999993E-3,1.381857890E-3
3.615484043E0,-1.099999994E-3,0.000000000E0,-1.374999993E-4,1.108560434E-3
3.617881889E0,1.374999993E-4,-1.099999994E-3,-1.374999993E-4,1.117055275E-3
3.620277368E0,1.237499993E-3,-1.099999994E-3,1.099999994E-3,1.987814430E-3
3.622674212E0,-1.099999994E-3,1.237499993E-3,-1.374999993E-4,1.661418812E-3
3.625070828E0,1.374999993E-4,0.000000000E0,-1.374999993E-3,1.381857890E-3
3.627467520E0,-1.099999994E-3,0.000000000E0,-1.374999993E-3,1.760859156E-3
3.629864366E0,-1.099999994E-3,1.237499993E-3,-1.374999993E-4,1.661418812E-3
3.632260949E0,-1.099999994E-3,0.000000000E0,1.099999994E-3,1.555634910E-3
3.634657640E0,1.374999993E-4,1.237499993E-3,1.099999994E-3,1.661418812E-3
3.637055486E0,-1.099999994E-3,0.000000000E0,-1.374999993E-4,1.108560434E-3
3.639451103E0,1.374999993E-4,0.000000000E0,1.099999994E-3,1.108560434E-3
3.641847794E0,1.374999993E-4,0.000000000E0,-1.374999993E-4,1.944543638E-4
3.644244374E0,1.374999993E-4,1.237499993E-3,-1.374999993E-3,1.854976405E-3
3.646641220E0,-1.099999994E-3,0.000000000E0,-1.374999993E-4,1.108560434E-3
3.649037914E0,1.374999993E-4,0.000000000E0,-1.374999993E-3,1.381857890E-3
3.651434530E0,1.237499993E-3,0.000000000E0,1.099999994E-3,1.655719246E-3
3.653831374E0,1.374999993E-4,0.000000000E0,-1.374999993E-3,1.381857890E-3
3.656229220E0,2.474999987E-3,1.237499993E-3,-1.374999993E-3,3.089928178E-3
3.658624684E0,-1.099999994E-3,1.237499993E-3,-1.374999993E-3,2.152215417E-3
3.661021528E0,1.237499993E-3,1.237499993E-3,-1.374999993E-4,1.755482474E-3
3.663418220E0,-1.099999994E-3,0.000000000E0,1.099999994E-3,1.555634910E-3
3.665814838E0,-1.099999994E-3,-1.099999994E-3,1.099999994E-3,1.905255878E-3
3.668211682E0,1.374999993E-4,1.237499993E-3,-1.374999993E-4,1.252684610E-3
3.670608299E0,1.374999993E-4,1.237499993E-3,-1.374999993E-4,1.252684610E-3
3.673004989E0,1.237499993E-3,0.000000000E0,1.099999994E-3,1.655719246E-3
3.675402836E0,1.374999993E-4,1.237499993E-3,1.099999994E-3,1.661418812E-3
3.677798453E0,-1.099999994E-3,0.000000000E0,-1.374999993E-4,1.108560434E-3
3.680195134E0,1.374999993E-4,-2.337499987E-3,-1.374999993E-4,2.345574277E-3
3.682591750E0,-1.099999994E-3,1.237499993E-3,-1.374999993E-3,2.152215417E-3
3.684988596E0,1.374999993E-4,-1.099999994E-3,-1.374999993E-4,1.117055275E-3
3.687385290E0,1.374999993E-4,-2.337499987E-3,-1.374999993E-4,2.345574277E-3
3.689781906E0,-1.099999994E-3,-1.099999994E-3,-1.374999993E-4,1.561699787E-3
3.692178740E0,1.374999993E-4,1.237499993E-3,-1.374999993E-4,1.252684610E-3
3.694576586E0,1.374999993E-4,-1.099999994E-3,-1.374999993E-3,1.766219470E-3
3.696972049E0,1.374999993E-4,1.237499993E-3,1.099999994E-3,1.661418812E-3
3.699368894E0,1.374999993E-4,0.000000000E0,-1.374999993E-3,1.381857890E-3
3.701765509E0,1.237499993E-3,0.000000000E0,-1.374999993E-4,1.245115450E-3
3.704162196E0,1.237499993E-3,0.000000000E0,-1.374999993E-4,1.245115450E-3
3.706559042E0,1.374999993E-4,0.000000000E0,-1.374999993E-3,1.381857890E-3
3.708955660E0,1.374999993E-4,0.000000000E0,-1.374999993E-3,1.381857890E-3
3.711352350E0,-1.099999994E-3,-1.099999994E-3,1.099999994E-3,1.905255878E-3
3.713750196E0,1.237499993E-3,0.000000000E0,-1.374999993E-4,1.245115450E-3
3.716145824E0,1.374999993E-4,1.237499993E-3,-1.374999993E-4,1.252684610E-3
3.718542514E0,1.374999993E-4,-1.099999994E-3,-1.374999993E-3,1.766219470E-3
3.720939360E0,1.374999993E-4,0.000000000E0,1.099999994E-3,1.108560434E-3
3.723335978E0,1.237499993E-3,0.000000000E0,-1.374999993E-3,1.849873296E-3
3.725732668E0,-1.099999994E-3,1.237499993E-3,1.099999994E-3,1.987814430E-3
3.728129294E0,1.374999993E-4,-2.337499987E-3,-1.374999993E-4,2.345574277E-3
3.730526138E0,1.374999993E-4,-1.099999994E-3,-1.374999993E-4,1.117055275E-3
3.732923985E0,1.374999993E-4,-1.099999994E-3,-1.374999993E-4,1.117055275E-3
3.735319448E0,-2.337499987E-3,0.000000000E0,-1.374999993E-4,2.341540613E-3
3.737716297E0,-1.099999994E-3,2.474999987E-3,1.099999994E-3,2.923290083E-3
3.740112913E0,1.374999993E-4,0.000000000E0,-1.374999993E-3,1.381857890E-3
3.742509605E0,-1.099999994E-3,-1.099999994E-3,-1.374999993E-4,1.561699787E-3
3.744906451E0,1.237499993E-3,-1.099999994E-3,-1.374999993E-4,1.661418812E-3
3.747303069E0,1.374999993E-4,1.237499993E-3,-1.374999993E-4,1.252684610E-3
3.749699745E0,1.374999993E-4,1.237499993E-3,-1.374999993E-4,1.252684610E-3
3.752097591E0,1.374999993E-4,0.000000000E0,-1.374999993E-4,1.944543638E-4
3.754493208E0,-1.099999994E-3,0.000000000E0,-1.374999993E-4,1.108560434E-3
3.756889899E0,-1.099999994E-3,2.474999987E-3,2.337499987E-3,3.577643234E-3
3.759286745E0,1.374999993E-4,0.000000000E0,-1.374999993E-4,1.944543638E-4
3.761683338E0,-1.099999994E-3,0.000000000E0,-1.374999993E-4,1.108560434E-3
3.764080029E0,1.374999993E-4,0.000000000E0,-1.374999993E-3,1.381857890E-3
3.766476646E0,1.374999993E-4,1.237499993E-3,-1.374999993E-3,1.854976405E-3
3.768873490E0,1.374999993E-4,0.000000000E0,-1.374999993E-4,1.944543638E-4
3.771271336E0,1.374999993E-4,0.000000000E0,-1.374999993E-3,1.381857890E-3
3.773666809E0,1.374999993E-4,-1.099999994E-3,-1.374999993E-3,1.766219470E-3
3.776063653E0,1.237499993E-3,0.000000000E0,-1.374999993E-3,1.849873296E-3
3.778460268E0,1.374999993E-4,-2.337499987E-3,1.099999994E-3,2.587047048E-3
3.780856961E0,1.374999993E-4,0.000000000E0,-1.374999993E-4,1.944543638E-4
3.783253807E0,1.374999993E-4,0.000000000E0,-1.374999993E-4,1.944543638E-4
3.785650429E0,1.374999993E-4,-1.099999994E-3,-1.374999993E-4,1.117055275E-3
3.788047120E0,-1.099999994E-3,-2.337499987E-3,-1.374999993E-4,2.587047048E-3
3.790445196E0,1.237499993E-3,0.000000000E0,-1.374999993E-4,1.245115450E-3
3.792840583E0,1.374999993E-4,0.000000000E0,-1.374999993E-4,1.944543638E-4
3.795237273E0,1.237499993E-3,-1.099999994E-3,-1.374999993E-4,1.661418812E-3
3.797634110E0,1.237499993E-3,-1.099999994E-3,-1.374999993E-4,1.661418812E-3
3.800030727E0,1.374999993E-4,0.000000000E0,-1.374999993E-3,1.381857890E-3
3.802427417E0,-1.099999994E-3,-1.099999994E-3,-1.374999993E-4,1.561699787E-3
3.804824263E0,1.374999993E-4,0.000000000E0,-2.474999987E-3,2.478816488E-3
3.807220881E0,1.237499993E-3,1.237499993E-3,-2.474999987E-3,3.031243540E-3
3.809618706E0,1.237499993E-3,2.474999987E-3,-1.374999993E-3,3.089928178E-3
3.812014170E0,1.237499993E-3,-1.099999994E-3,-1.374999993E-4,1.661418812E-3
3.814411014E0,-1.099999994E-3,-3.574999981E-3,-1.374999993E-3,3.985128584E-3
3.816807629E0,-2.337499987E-3,-2.337499987E-3,-1.374999993E-3,3.580284536E-3
3.819204552E0,1.374999993E-4,1.237499993E-3,-1.374999993E-4,1.252684610E-3
3.821601156E0,1.237499993E-3,4.949999973E-3,-1.374999993E-3,5.284366655E-3
3.823997771E0,2.474999987E-3,2.474999987E-3,-1.374999993E-3,3.760568421E-3
3.826394461E0,1.237499993E-3,-2.337499987E-3,-1.374999993E-4,2.648437025E-3
3.828792538E0,-1.099999994E-3,-3.574999981E-3,1.099999994E-3,3.898797871E-3
3.831187925E0,1.374999993E-4,-3.574999981E-3,-1.374999993E-4,3.580284536E-3
3.833584620E0,1.237499993E-3,-1.099999994E-3,-1.374999993E-4,1.661418812E-3
3.835981466E0,1.237499993E-3,1.237499993E-3,-1.374999993E-3,2.225631921E-3
