"Time (s)","Gyroscope x (rad/s)","Gyroscope y (rad/s)","Gyroscope z (rad/s)","Absolute (rad/s)"
4.497416667E-3,5.006869324E-4,3.678559558E-3,-5.757962354E-4,3.756864269E-3
1.454341667E-2,5.803155946E-4,-5.244412459E-4,9.278245270E-4,1.213533338E-3
2.458841667E-2,-2.830813173E-4,-5.328458734E-3,4.696543328E-4,5.356601787E-3
3.463441667E-2,1.638389425E-3,7.984098047E-4,1.538380980E-3,2.385035464E-3
4.467941667E-2,-3.114598803E-5,1.741064712E-2,-1.042648684E-3,1.744186686E-2
5.472441667E-2,1.011215267E-3,2.830031328E-2,7.363429759E-4,2.832794537E-2
6.477041667E-2,2.626955044E-3,3.827911615E-2,-2.065758454E-4,3.836970550E-2
7.481541667E-2,2.356377896E-3,3.333602473E-2,-2.421260579E-3,3.350679878E-2
8.486141667E-2,4.697562195E-3,3.515040502E-2,4.772178363E-4,3.546612187E-2
9.490641667E-2,2.450919710E-3,4.678708687E-2,-1.017614501E-3,4.686228809E-2
1.049514167E-1,2.992074238E-3,6.381945312E-2,-1.077375840E-3,6.389863726E-2
1.149974167E-1,9.496960556E-4,3.552283347E-2,-5.274331197E-4,3.553944014E-2
1.250424167E-1,-1.488960814E-3,-3.584736586E-2,-1.458553597E-4,3.587857183E-2
1.350874167E-1,-2.452225890E-3,-1.465698779E-1,-1.378632616E-3,1.465968729E-1
1.451334167E-1,-3.912704065E-3,-1.690156907E-1,-9.893032257E-5,1.690610030E-1
1.551784167E-1,-1.149940537E-3,-1.442200691E-1,-1.777254511E-3,1.442356035E-1
1.652244167E-1,-2.175523667E-3,-9.581305832E-2,6.714439951E-5,9.583777729E-2
1.752694167E-1,1.405096380E-3,-2.502170578E-2,-1.191998250E-3,2.508945826E-2
1.853144167E-1,1.040509786E-3,3.234233707E-2,4.594812635E-4,3.236233228E-2
1.953604167E-1,1.617350383E-3,5.422580242E-2,1.316220034E-3,5.426588160E-2
2.054054167E-1,1.364083844E-3,3.632571921E-2,6.242240779E-4,3.635668104E-2
2.154514167E-1,1.609893632E-3,-1.313344389E-2,-3.504927736E-4,1.323638739E-2
2.254964167E-1,-9.635188617E-4,-6.348641962E-2,-7.072498556E-4,6.349766962E-2
2.355414167E-1,-7.661788259E-4,-1.113378331E-1,-1.247871434E-3,1.113474620E-1
2.455874167E-1,-6.521951873E-4,-1.593098491E-1,-1.868684776E-4,1.593112937E-1
2.556324167E-1,-1.971791731E-3,-2.144055963E-1,-2.890243195E-3,2.144341418E-1
2.656784167E-1,-2.014135942E-3,-2.596463859E-1,-1.116843894E-3,2.596565998E-1
2.757234167E-1,-3.773153760E-3,-3.040194511E-1,-2.723529004E-3,3.040550624E-1
2.857684167E-1,-1.102268696E-3,-2.686633766E-1,-1.589664025E-3,2.686703406E-1
2.958144167E-1,-2.762749791E-3,-2.115806639E-1,-2.095398260E-3,2.116090755E-1
3.058594167E-1,-1.219714992E-3,-1.551765800E-1,-1.588277053E-3,1.551895012E-1
3.159044167E-1,-1.438627020E-3,-9.614574909E-2,1.356912777E-3,9.616608513E-2
3.259504167E-1,-4.085164983E-4,-4.217252508E-2,-1.232105307E-3,4.219249745E-2
3.359954167E-1,-1.690983772E-4,1.198631898E-2,-7.218436804E-4,1.200922542E-2
3.460414167E-1,1.325201476E-3,6.195053458E-2,1.947655575E-3,6.199530834E-2
3.560864167E-1,5.273184506E-4,1.072591618E-1,7.044917438E-4,1.072627715E-1
3.661314167E-1,2.234517597E-4,1.481736898E-1,1.010808628E-3,1.481773060E-1
3.761774167E-1,2.113230992E-3,1.804578602E-1,2.520821057E-3,1.804878378E-1
3.862224167E-1,2.970236354E-3,2.027899474E-1,1.638569403E-3,2.028183177E-1
3.962684167E-1,2.512438921E-3,2.166458368E-1,1.884911675E-3,2.166686038E-1
4.063134167E-1,4.227780737E-3,2.186796665E-1,4.775898997E-4,2.187210524E-1
4.163584167E-1,3.456529230E-3,2.106472999E-1,2.088003559E-3,2.106860040E-1
4.264044167E-1,3.089546226E-3,1.971627772E-1,1.689062221E-3,1.971942163E-1
4.364494167E-1,2.846133197E-3,1.739021987E-1,2.373494674E-3,1.739416818E-1
4.464944167E-1,2.610709518E-3,1.491271257E-1,6.628930569E-4,1.491514494E-1
4.565404167E-1,6.090776296E-4,1.190778837E-1,1.869837521E-3,1.190941210E-1
4.665854167E-1,7.025549421E-4,8.757866919E-2,1.386207063E-3,8.759245659E-2
4.766314167E-1,-3.194482997E-5,5.535868183E-2,4.322626628E-4,5.536037866E-2
4.866764167E-1,6.522209151E-4,2.322855778E-2,-8.923676796E-5,2.323788398E-2
4.967214167E-1,-2.316823229E-4,-7.202051114E-3,2.836058848E-4,7.211355576E-3
5.067674167E-1,1.519289799E-5,-3.219996020E-2,-4.164860584E-4,3.220265716E-2
5.168124167E-1,-6.380805280E-4,-5.598198995E-2,-3.882566234E-4,5.598697249E-2
5.268584167E-1,-1.668723999E-3,-7.378502190E-2,9.008722845E-4,7.380938739E-2
5.369034167E-1,-2.596835839E-3,-8.746647835E-2,-1.797176083E-3,8.752347247E-2
5.469484167E-1,-1.301474404E-3,-9.528154880E-2,-3.040125594E-3,9.533892039E-2
5.569944167E-1,-3.563186619E-4,-9.962969273E-2,-1.189494738E-3,9.963743039E-2
5.670394167E-1,-1.562464051E-3,-9.769520164E-2,-6.198447663E-4,9.770966136E-2
5.770844167E-1,-7.283620071E-4,-9.251348674E-2,4.488020204E-5,9.251636479E-2
5.871304167E-1,-2.463677665E-3,-8.259803802E-2,8.775666356E-5,8.263481889E-2
5.971754167E-1,-1.141950721E-3,-6.996799260E-2,-8.573990781E-4,6.998256335E-2
6.072214167E-1,-1.167783514E-3,-5.723793432E-2,-1.123661408E-3,5.726087197E-2
6.172664167E-1,3.957585432E-4,-4.152289033E-2,-4.059396451E-4,4.152676045E-2
6.273114167E-1,1.733850222E-4,-2.718549222E-2,2.861609682E-4,2.718755115E-2
6.373574167E-1,-1.599481096E-3,-1.215833984E-2,-7.484770613E-4,1.228591818E-2
6.474024167E-1,-1.914682798E-4,2.286526375E-3,-1.871357672E-4,2.302147423E-3
6.574484167E-1,-2.982611768E-4,1.577144116E-2,2.664003987E-4,1.577651055E-2
6.674934167E-1,5.275849253E-4,2.620387077E-2,-8.718867321E-4,2.622367968E-2
6.775384167E-1,3.516650759E-5,3.381678089E-2,1.151849283E-3,3.383641032E-2
6.875844167E-1,1.999247586E-3,3.948736191E-2,5.946632009E-4,3.954241224E-2
6.976294167E-1,-3.243603278E-4,4.251085222E-2,-9.473069804E-4,4.252264287E-2
7.076744167E-1,-2.502067946E-5,4.299483448E-2,2.099348698E-3,4.304606467E-2
7.177204167E-1,-1.211608760E-4,3.846719489E-2,-3.859131830E-4,3.846932143E-2
7.277664167E-1,1.285520848E-3,3.490122408E-2,1.096934779E-3,3.494211316E-2
7.378124167E-1,-1.817328157E-3,2.824731730E-2,-4.658080870E-4,2.830954951E-2
7.478574167E-1,1.113479957E-3,2.195080370E-2,-9.016070981E-4,2.199751158E-2
7.579024167E-1,-1.191219548E-3,1.559623424E-2,-4.214391811E-4,1.564733643E-2
7.679484167E-1,5.915008951E-4,5.938517861E-3,-7.720711874E-4,6.017637544E-3
7.779934167E-1,-1.277029514E-5,1.291834749E-3,-1.299830619E-4,1.298420462E-3
7.880394167E-1,-7.794946432E-4,-4.963047337E-3,-6.638419582E-4,5.067557292E-3
7.980844167E-1,-1.287359511E-3,-1.119191572E-2,7.154091727E-4,1.128840477E-2
8.081294167E-1,-1.187490765E-3,-1.582116634E-2,-6.505245110E-4,1.587899936E-2
8.181754167E-1,-7.121164817E-4,-2.090034634E-2,-2.683608327E-4,2.091419624E-2
8.282204167E-1,5.787177943E-4,-2.124637924E-2,-1.147790113E-3,2.128522885E-2
8.382654167E-1,-4.918728955E-4,-2.083572000E-2,-5.142240552E-4,2.084786784E-2
8.483114167E-1,1.070337254E-3,-2.103158087E-2,5.832114257E-4,2.106687331E-2
8.583564167E-1,-9.693778120E-4,-1.868933067E-2,-2.570158103E-4,1.871621840E-2
8.684024167E-1,-3.914718982E-4,-1.596689969E-2,6.995387375E-4,1.598701006E-2
8.784474167E-1,-1.983928960E-4,-1.292290632E-2,-8.245883510E-4,1.295070706E-2
8.884924167E-1,-6.231670268E-4,-7.581257727E-3,1.156134531E-4,7.607704801E-3
8.985384167E-1,-7.539282087E-4,-3.384381998E-3,6.668877322E-4,3.530890610E-3
9.085834167E-1,-4.793554544E-4,-2.180837095E-3,3.350023180E-4,2.257888093E-3
9.186294167E-1,6.660702638E-4,1.535071526E-3,-8.450442692E-4,1.874618362E-3
9.286744167E-1,-7.280954160E-4,4.450073466E-3,-5.038385279E-4,4.537304271E-3
9.387194167E-1,-1.067800913E-4,4.759000614E-3,-8.090367774E-4,4.828460349E-3
9.487654167E-1,6.197302137E-4,6.877782755E-3,-4.675122909E-4,6.921454247E-3
9.588104167E-1,-1.115585444E-3,5.914251320E-3,-1.956035849E-4,6.021724032E-3
9.688554167E-1,-1.380835893E-3,9.205773473E-3,1.266384497E-4,9.309619235E-3
9.789014167E-1,-1.248743152E-3,6.822244730E-3,-2.182322089E-3,7.270826109E-3
9.889464167E-1,7.912386209E-4,4.251318518E-3,-1.813582261E-3,4.689226836E-3
9.989924167E-1,-6.972020492E-4,4.005242139E-3,-1.565375598E-3,4.356426982E-3
1.009037417E0,-4.175710492E-4,3.026763909E-3,-8.497289382E-4,3.171388435E-3
1.019082417E0,7.046849933E-4,1.839792822E-3,8.024694398E-5,1.971765234E-3
1.029128417E0,1.006801613E-4,-4.019392654E-4,4.389204551E-4,6.036081791E-4
1.039173417E0,-1.598150469E-3,-2.275207080E-3,-5.453837803E-4,2.833389427E-3
1.049219417E0,4.607401788E-4,-4.010577220E-3,6.792973727E-4,4.093709329E-3
1.059264417E0,-1.320381882E-3,-4.910725635E-3,9.812996723E-4,5.178955842E-3
1.069309417E0,-1.247944543E-3,-4.959611688E-3,8.940557018E-4,5.191767452E-3
1.079355417E0,4.732564557E-4,-5.467743147E-3,-2.287330572E-4,5.492950538E-3
1.089400417E0,-2.235802822E-5,-4.341197200E-3,2.936725505E-4,4.351176459E-3
1.099446417E0,-9.086581413E-4,-3.920949996E-3,6.926138885E-4,4.084020382E-3
1.109491417E0,-2.098025521E-3,-5.460374523E-3,-3.883093596E-4,5.862438501E-3
1.119536417E0,-2.631723182E-3,-5.135468673E-3,-7.811256219E-4,5.823157446E-3
1.129582417E0,-1.244482351E-3,-3.682417329E-3,5.659009330E-4,3.927999182E-3
1.139627417E0,-1.866064267E-3,-2.091711853E-3,1.084152143E-3,3.005468382E-3
1.149672417E0,-2.263560891E-4,-3.038851544E-3,7.982351817E-4,3.150084950E-3
1.159718417E0,-1.892696135E-3,-3.232729621E-3,-2.578120446E-3,4.547476717E-3
1.169763417E0,-1.776049845E-3,-2.474645153E-3,-8.320985362E-4,3.157627219E-3
1.179809417E0,-1.970615704E-4,-2.202470787E-3,-5.860225065E-4,2.287604251E-3
1.189854417E0,-4.335497506E-4,-9.839842096E-4,1.776651479E-4,1.089841831E-3
1.199899417E0,5.030839238E-4,-1.605832018E-3,1.883178484E-4,1.693296642E-3
1.209945417E0,-4.090489820E-4,-8.739088662E-4,-1.133195590E-3,1.488344725E-3
1.219990417E0,-3.848141059E-4,-1.967668999E-3,8.053192869E-4,2.160634708E-3
1.230035417E0,1.195885707E-4,-3.071727697E-3,-2.995734103E-4,3.088617279E-3
1.240081417E0,5.020184908E-4,-2.423247788E-3,6.386581808E-4,2.555784944E-3
1.250126417E0,-5.893448833E-4,-9.065200575E-4,1.481559593E-4,1.091355210E-3
1.260172417E0,2.274464350E-4,-1.573642250E-3,-2.851404715E-4,1.615359682E-3
1.270217417E0,1.196571044E-3,-1.461016014E-3,1.540777739E-3,2.437282523E-3
1.280262417E0,2.623342443E-4,-1.975538209E-3,1.561816782E-3,2.531964086E-3
1.290308417E0,-2.495255321E-4,-1.126671210E-3,5.457676016E-4,1.276523906E-3
1.300353417E0,-6.561900955E-4,-8.294628933E-4,1.069078688E-3,1.503836219E-3
1.310399417E0,-5.259609316E-4,-1.614264678E-3,7.578604855E-4,1.859257343E-3
1.320444417E0,-9.576594457E-4,9.894696996E-5,3.701043315E-4,1.031445264E-3
1.330489417E0,2.929605544E-4,4.638577811E-4,1.158267260E-4,5.607189652E-4
1.340535417E0,1.574739930E-3,9.618690237E-4,1.155258389E-3,2.177066791E-3
1.350580417E0,-1.031961991E-3,2.105400898E-3,8.323232178E-4,2.488055552E-3
1.360625417E0,8.815192850E-4,1.459051855E-3,-1.365346834E-4,1.710131657E-3
1.370671417E0,2.468875609E-4,1.508171670E-3,-2.319286577E-4,1.545744531E-3
1.380716417E0,8.735294687E-4,-3.384635784E-4,-4.596289946E-4,1.043489405E-3
1.390762417E0,-1.693645027E-4,1.725661568E-3,8.616717532E-4,1.936251635E-3
1.400807417E0,7.302514277E-4,4.816991277E-4,9.281700477E-5,8.797250671E-4
1.410852417E0,3.603382502E-4,-4.388671368E-4,-8.954289369E-4,1.060302315E-3
1.420898417E0,3.073413391E-4,-5.395347252E-4,-2.922229469E-4,6.862584565E-4
1.430943417E0,1.252231654E-3,-1.279544085E-4,3.772948403E-4,1.314080607E-3
1.440989417E0,-3.134408034E-4,-1.134895254E-3,-1.694521634E-4,1.189515200E-3
1.451034417E0,7.968308637E-4,-1.400264911E-3,8.672636468E-4,1.829706938E-3
1.461079417E0,-1.207730500E-3,-1.237812452E-3,1.611723565E-5,1.729465927E-3
1.471125417E0,5.134701496E-4,5.486942828E-4,7.565303240E-4,1.066327877E-3
1.481170417E0,1.773411641E-3,-1.953612082E-3,8.115265518E-5,2.639730056E-3
1.491215417E0,-9.825802408E-5,9.974325076E-4,-2.058845712E-4,1.023188498E-3
1.501261417E0,-6.229006685E-4,-3.064507619E-4,5.267509259E-4,8.714263309E-4
1.511306417E0,7.901727222E-4,-1.873213798E-3,1.363921911E-6,2.033053055E-3
1.521352417E0,1.027993043E-3,-2.191994339E-3,-1.451099524E-4,2.425420742E-3
1.531397417E0,-2.439327072E-4,-1.715821214E-3,4.775370471E-4,1.797661602E-3
1.541442417E0,4.729903303E-4,-8.066175506E-4,-8.037097286E-4,1.233004888E-3
1.551488417E0,-2.529872581E-4,8.005117998E-4,4.788152874E-4,9.664811295E-4
1.561533417E0,-1.533434959E-3,3.728084266E-4,2.662949264E-4,1.600413036E-3
1.571579417E0,5.046819570E-4,9.295563214E-4,2.120867372E-3,2.369990979E-3
1.581624417E0,4.607397132E-4,-3.897738643E-4,5.434767809E-4,8.121402342E-4
1.591669417E0,1.091642887E-3,-2.148204949E-3,-1.841545338E-3,3.032780560E-3
1.601715417E0,-5.129117053E-4,-8.283420466E-4,1.084469724E-3,1.457842086E-3
1.611760417E0,-2.423347905E-4,-2.365040127E-3,-1.006216509E-3,2.581591102E-3
1.621805417E0,-1.882726792E-4,9.125121869E-4,-8.781184442E-4,1.280319138E-3
1.631851417E0,-7.349066436E-5,-1.072551589E-3,-3.993354039E-4,1.146837632E-3
1.641896417E0,-1.649884507E-5,-6.241491064E-5,9.322450496E-4,9.344777501E-4
1.651942417E0,-1.698817359E-3,8.261604235E-4,1.302617602E-5,1.889097972E-3
1.661987417E0,-9.874869138E-4,1.948885620E-5,-2.223972697E-4,1.012408399E-3
1.672032417E0,-1.014119014E-3,1.078206114E-4,-7.320474833E-5,1.022458603E-3
1.682078417E0,3.952258267E-4,-1.142867841E-4,-2.557135187E-3,2.590020326E-3
1.692123417E0,-8.588570636E-4,-1.254385337E-3,-1.234314404E-4,1.525238785E-3
1.702169417E0,-1.091883751E-3,-3.004409373E-4,-1.450218260E-3,1.840002142E-3
1.712214417E0,4.663327709E-4,-1.226508524E-3,-1.084247953E-3,1.702170097E-3
1.722259417E0,-1.654608641E-3,-1.412929501E-3,7.133858744E-4,2.289763948E-3
1.732305208E0,-1.604275545E-3,-3.084000200E-4,3.820364363E-4,1.677725376E-3
1.742350208E0,9.419728303E-4,-9.853756055E-4,8.536037058E-5,1.365856614E-3
1.752395208E0,-4.828185774E-4,8.494816720E-4,5.775124300E-4,1.135012554E-3
1.762441208E0,-1.054332824E-3,-6.264420226E-4,2.542047296E-4,1.252464513E-3
1.772486208E0,-1.165919006E-3,-1.665812917E-3,9.840982966E-5,2.035677847E-3
1.782532208E0,5.843103863E-4,3.701215610E-5,7.777821738E-4,9.735161207E-4
1.792577208E0,1.259155222E-3,-1.482442953E-3,1.660529524E-4,1.952096966E-3
1.802622208E0,5.648691440E-4,-4.257010296E-4,7.753840182E-4,1.049532702E-3
1.812668208E0,-3.525896464E-4,-4.218500108E-4,-2.549916971E-4,6.060508691E-4
1.822713208E0,-1.080431743E-3,6.982749328E-4,5.612671375E-4,1.403546021E-3
1.832759208E0,3.187942784E-4,-3.633769229E-4,-1.235677628E-3,1.326865396E-3
1.842804208E0,-1.317718066E-3,-1.489095390E-3,-2.654879354E-4,2.006058281E-3
1.852849208E0,-6.801586132E-4,9.892997332E-4,3.427281044E-4,1.248516021E-3
1.862895208E0,1.052494044E-3,9.288457222E-4,-6.399784470E-4,1.542747712E-3
1.872940208E0,-7.922768127E-4,-1.618978102E-3,2.818435896E-4,1.824343293E-3
1.882985208E0,-1.377373468E-3,1.983480062E-3,1.044769306E-4,2.417078041E-3
1.893031208E0,-6.849523634E-4,-9.575015865E-4,1.193075674E-3,1.676126067E-3
1.903076208E0,1.901623327E-4,-4.581590183E-4,2.817420755E-4,5.704822486E-4
1.913122208E0,-3.179686610E-4,-6.323591806E-4,6.994318683E-4,9.950814746E-4
1.923167208E0,-4.712515511E-5,1.687202603E-4,-5.618411815E-4,5.885174761E-4
1.933212208E0,5.052144406E-4,2.793008462E-4,2.063740976E-4,6.130586121E-4
1.943258208E0,-8.295618463E-4,-4.333606921E-4,-8.093555225E-4,1.237348257E-3
1.953303208E0,-2.753583249E-4,-1.131553669E-3,-2.934477525E-4,1.200977725E-3
1.963349208E0,-1.084426651E-3,-2.062327694E-3,-7.557724603E-4,2.449565000E-3
1.973394208E0,2.106688917E-4,-1.581805758E-3,1.632337226E-3,2.282764915E-3
1.983439208E0,1.060066279E-4,1.599015668E-4,-5.083115539E-4,5.433107325E-4
1.993485208E0,-1.061522402E-3,-8.033611812E-4,1.233340241E-3,1.814758151E-3
2.003530208E0,8.203880861E-5,-3.351778723E-4,-6.396608660E-4,7.268016206E-4
2.013575208E0,-7.858860772E-4,-9.424099699E-4,3.682414535E-4,1.281153873E-3
2.023621208E0,5.297154421E-4,-8.734343573E-4,3.767635208E-4,1.088777653E-3
2.033666208E0,-2.453025430E-3,-6.421841681E-5,-1.699223882E-3,2.984764575E-3
2.043712208E0,1.412723213E-5,-1.638205722E-4,1.942836680E-4,2.545248558E-4
2.053757208E0,5.300948396E-5,-4.991432652E-4,7.434273139E-4,8.970162627E-4
2.063802208E0,-1.314257272E-3,-1.759351231E-3,5.143955350E-4,2.255480369E-3
2.073848208E0,9.797899984E-4,4.405714571E-4,-8.284776704E-4,1.356638087E-3
2.083893208E0,-2.038104227E-3,-2.497694455E-3,-1.411157427E-4,3.226803385E-3
2.093939208E0,-5.720343906E-4,-8.819559589E-4,-6.410966162E-4,1.231289783E-3
2.103984208E0,-2.599118743E-4,1.286622137E-5,-6.904953625E-5,2.692351398E-4
2.114029208E0,1.626138575E-3,-4.698177800E-4,-8.268503007E-5,1.694665816E-3
2.124075208E0,-6.199714262E-4,-2.240082249E-4,-4.004001385E-4,7.712746106E-4
2.134120208E0,-2.017864957E-3,-1.314572990E-3,-1.523987856E-3,2.849985985E-3
2.144165208E0,-5.222335458E-4,8.103637956E-4,4.166576546E-4,1.050248046E-3
2.154211208E0,-4.423384089E-4,-3.919671290E-4,1.592122950E-3,1.698280597E-3
2.164256208E0,6.628733827E-4,-1.965096686E-3,-5.914028734E-4,2.156562882E-3
2.174302208E0,7.323819445E-4,-4.100436345E-4,2.455094596E-3,2.594611449E-3
2.184347208E0,2.394309267E-4,-8.960710838E-4,-8.544158190E-4,1.261069763E-3
2.194392208E0,8.849812439E-4,-1.194166951E-3,-1.255807700E-3,1.945836449E-3
2.204438208E0,8.496758528E-5,-5.928250030E-4,7.764506154E-4,9.805796922E-4
2.214483208E0,1.021068892E-3,1.977784559E-4,1.356403809E-4,1.048854763E-3
2.224529208E0,4.817787558E-4,5.860673264E-4,4.613448400E-4,8.879328477E-4
2.234574208E0,1.714555663E-3,-1.052697655E-3,-9.360159747E-4,2.219008648E-3
2.244619208E0,-1.075371867E-3,4.751584493E-4,-8.292231942E-4,1.438683881E-3
2.254665208E0,-1.223781146E-5,8.014836349E-4,1.340948511E-4,8.127159467E-4
2.264710208E0,4.703269806E-4,-1.962877810E-3,-1.322211465E-4,2.022765235E-3
2.274755208E0,5.891041365E-4,-1.883492805E-4,1.723415917E-3,1.831032921E-3
2.284801208E0,3.390333150E-4,-1.798230223E-3,8.906454314E-4,2.035147368E-3
2.294846208E0,1.033442095E-4,-1.009223517E-3,-1.451126067E-3,1.770587189E-3
2.304892208E0,8.772587171E-4,-2.262541093E-4,7.806112990E-5,9.093224503E-4
2.314937208E0,1.968203578E-4,-1.563458703E-3,-5.028785672E-4,1.654094382E-3
2.324982208E0,-1.316121547E-3,4.954310134E-4,-1.193169854E-3,1.844256521E-3
2.335028208E0,-6.276939530E-4,-1.516319811E-3,2.722067293E-4,1.663526968E-3
2.345073208E0,1.128394390E-3,-1.090480015E-3,3.145704977E-5,1.569525440E-3
2.355119208E0,-1.115738414E-4,-5.169864744E-4,-1.616133377E-3,1.700473707E-3
2.365164208E0,2.048097085E-4,-2.209158614E-3,-4.848225508E-4,2.270986945E-3
2.375209208E0,5.993363447E-5,-2.052210271E-3,-1.000091201E-3,2.283712208E-3
2.385255208E0,7.584807463E-4,7.891166024E-4,-8.850425947E-4,1.407586036E-3
2.395300208E0,-9.174461011E-4,-1.096429303E-3,3.111963160E-4,1.463115755E-3
2.405346208E0,-1.970611047E-4,-2.141236328E-4,-1.672059763E-3,1.697193525E-3
2.415391208E0,1.636525267E-3,-2.994039096E-4,-5.006950814E-4,1.737398404E-3
2.425436208E0,1.994834747E-4,-1.697079279E-4,-1.308431849E-3,1.334386878E-3
2.435482208E0,-1.914685126E-4,-1.398432534E-3,-1.136844512E-4,1.416050104E-3
2.445527208E0,2.932266798E-4,-3.374288790E-4,-4.734775284E-4,6.511690288E-4
2.455572208E0,-1.360330265E-3,4.188790917E-4,1.496303128E-3,2.065158874E-3
2.465618208E0,4.229224287E-4,5.469769239E-4,-7.743079914E-4,1.038075143E-3
2.475663208E0,-3.354297951E-5,-9.248619899E-4,5.446488503E-4,1.073842261E-3
2.485709208E0,-1.289489679E-3,2.115669195E-3,-3.831965150E-4,2.507125713E-3
2.495754208E0,-7.824241184E-4,-3.073066473E-4,8.627900388E-4,1.204587700E-3
2.505799208E0,7.321154699E-4,-5.038455129E-6,5.000673700E-4,8.866148103E-4
2.515845208E0,5.289164837E-4,4.523491021E-3,7.079541683E-4,4.609004531E-3
2.525890208E0,5.622060271E-4,1.961800158E-1,7.013254799E-3,1.963061395E-1
2.535936208E0,1.203110907E-2,8.831367493E-1,1.008766051E-2,8.832763024E-1
2.545981208E0,2.960637398E-2,1.786146045E0,2.022311836E-2,1.786505865E0
2.556026208E0,4.818831384E-2,2.692670822E0,2.517494559E-2,2.693219643E0
2.566072208E0,7.070640475E-2,3.317594528E0,3.089647926E-2,3.318491742E0
2.576117208E0,7.752649486E-2,3.531423092E0,3.327820078E-2,3.532430728E0
2.586162208E0,8.678896725E-2,3.633232594E0,3.753099963E-2,3.634462819E0
2.596208208E0,1.067677364E-1,3.884623289E0,4.315879196E-2,3.886329905E0
2.606253208E0,1.194403842E-1,4.370281696E0,4.684913531E-2,4.372164561E0
2.616299208E0,1.591409296E-1,5.044589520E0,5.662991479E-2,5.047416785E0
2.626344208E0,2.007328421E-1,5.792485237E0,7.143735141E-2,5.796402522E0
2.636389208E0,2.969952226E-1,6.444812775E0,1.049534529E-1,6.452505954E0
2.646435208E0,3.877703846E-1,7.027786255E0,1.502575427E-1,7.040079747E0
2.656480208E0,5.019198656E-1,7.465948105E0,2.502059340E-1,7.486982547E0
2.666526208E0,6.377895474E-1,7.737372398E0,3.421694040E-1,7.771150947E0
2.676571208E0,7.636864781E-1,8.181561470E0,4.058295488E-1,8.227141833E0
2.686616208E0,9.374306202E-1,8.707062721E0,5.052978396E-1,8.771946381E0
2.696662208E0,3.901293874E-1,9.208825111E0,-1.965250075E-1,9.219180167E0
2.706707208E0,1.867595166E-1,9.413681030E0,-1.061943099E-1,9.416132268E0
2.716752208E0,2.649816275E-1,1.026106358E1,-2.751603024E-3,1.026448482E1
2.726798042E0,5.244161487E-1,1.117383575E1,1.884671003E-1,1.118772263E1
2.736843042E0,8.048842549E-1,1.209373474E1,3.941760361E-1,1.212689711E1
2.746889042E0,9.121792912E-1,1.259474564E1,6.197141409E-1,1.264293219E1
2.756934042E0,9.656150341E-1,1.295145512E1,7.719909549E-1,1.301032559E1
2.766979042E0,9.882540703E-1,1.344013596E1,8.844016790E-1,1.350540880E1
2.777025042E0,1.032171965E0,1.422024059E1,1.113190532E0,1.430104243E1
2.787070042E0,1.119924784E0,1.514635372E1,1.183091044E0,1.523371153E1
2.797116042E0,1.115975618E0,1.605640221E1,1.369821906E0,1.615332367E1
2.807161042E0,1.179955363E0,1.686355972E1,1.631147027E0,1.698330303E1
2.817206042E0,1.092346430E0,1.788145065E1,1.795886159E0,1.800457457E1
2.827252042E0,1.316517234E0,1.867346764E1,1.961747289E0,1.882232886E1
2.837297042E0,1.350503564E0,1.984558868E1,2.062392950E0,1.999811778E1
2.847342042E0,1.457060456E0,2.118140411E1,2.086059093E0,2.133369513E1
2.857388042E0,1.586910844E0,2.232390785E1,2.057764530E0,2.247464221E1
2.867433042E0,1.657738686E0,2.320648384E1,2.007812977E0,2.335209418E1
2.877479042E0,1.179593921E0,2.405305099E1,1.456582427E0,2.412596809E1
2.887524042E0,4.964257479E-1,2.466012192E1,4.379930794E-1,2.466900666E1
2.897569042E0,2.198505878E0,2.358933640E1,1.229506373E0,2.372344633E1
2.907615042E0,-5.051296204E-2,2.336327171E1,-2.552551031E-1,2.336472067E1
2.917660042E0,-2.388083041E-1,2.264542007E1,-8.813563585E-1,2.266382291E1
2.927706042E0,-3.130934536E-1,2.188224220E1,-1.876316309E0,2.196476984E1
2.937751042E0,-1.438026875E-1,2.154837990E1,-2.414551735E0,2.168371314E1
2.947796042E0,-1.525330067E0,2.068255806E1,-1.382733941E0,2.078477310E1
2.957842042E0,-1.338412523E0,2.074058723E1,-1.184460521E0,2.081745070E1
2.967887042E0,-1.878955364E0,2.054719353E1,-1.184104681E0,2.066687540E1
2.977933042E0,-2.076924086E0,2.071823120E1,-1.038893580E0,2.084797395E1
2.987978042E0,-2.625738859E0,2.094865799E1,-7.654578090E-1,2.112644555E1
2.998023042E0,-1.137481809E0,2.152172852E1,-6.872817278E-1,2.156272291E1
3.008069042E0,3.564332128E-1,2.197067833E1,-7.530010492E-2,2.197369839E1
3.018114042E0,1.582059622E0,2.177276993E1,4.721468687E-1,2.183527755E1
3.028159042E0,2.314504385E0,2.153640175E1,1.252169490E0,2.169657713E1
3.038205042E0,4.871695116E-2,2.064247131E1,-1.204615474E0,2.067764720E1
3.048250042E0,1.167401671E0,2.027177238E1,-1.428909749E-1,2.030586123E1
3.058296042E0,1.388231039E0,1.999921608E1,5.988312364E-1,2.005628151E1
3.068341042E0,1.404519796E0,1.957943726E1,1.471899867E0,1.968485530E1
3.078386042E0,1.083658099E0,1.911491203E1,2.502970934E0,1.930852248E1
3.088432042E0,1.661292911E0,1.881360626E1,1.297910810E0,1.893135619E1
3.098477042E0,1.683688760E0,1.854038811E1,1.369935036E0,1.866701693E1
3.108523042E0,2.029054403E0,1.841842461E1,1.413877130E0,1.858371533E1
3.118568042E0,2.254207134E0,1.844194221E1,1.387345672E0,1.863092618E1
3.128613042E0,2.433003664E0,1.851315308E1,1.337485194E0,1.872018190E1
3.138659042E0,2.599611521E0,1.886437035E1,1.126590371E0,1.907594439E1
3.148704042E0,2.905150890E0,1.931873512E1,8.344205022E-1,1.955376399E1
3.158749042E0,3.602283239E0,1.980581665E1,4.574605823E-1,2.013594020E1
3.168795042E0,2.073162079E0,2.011556053E1,-5.396263599E-1,2.022930975E1
3.178840042E0,-9.846199155E-1,2.062932777E1,-1.605408311E0,2.071511469E1
3.188886042E0,-1.279742360E0,1.997097397E1,-1.848016500E0,2.009708205E1
3.198931042E0,8.662145585E-2,1.905124283E1,1.140500158E-1,1.905178112E1
3.208976042E0,-3.394148052E-1,1.841872787E1,-2.017401755E-1,1.842295954E1
3.219022042E0,-5.704538822E-1,1.802705765E1,-5.719829798E-1,1.804514864E1
3.229067042E0,-8.279240727E-1,1.742916107E1,-1.960825443E0,1.755864318E1
3.239113042E0,-8.189206719E-1,1.695146751E1,-1.379910707E0,1.702724392E1
3.249158042E0,-7.528876066E-1,1.672789001E1,-1.411682725E0,1.680422543E1
3.259203042E0,-1.036612034E0,1.616912079E1,-1.637513757E0,1.628485440E1
3.269249042E0,-1.168384075E0,1.598411369E1,-1.500494123E0,1.609684735E1
3.279294042E0,-1.444142818E0,1.561058140E1,-1.576812506E0,1.575633643E1
3.289340042E0,-1.679045320E0,1.548295212E1,-1.462434173E0,1.564224131E1
3.299385042E0,-1.849397302E0,1.553065205E1,-1.307860255E0,1.569496486E1
3.309430042E0,-1.983500719E0,1.567531586E1,-1.131630182E0,1.584078247E1
3.319476042E0,-2.314250946E0,1.602729797E1,-8.437502384E-1,1.621548495E1
3.329521042E0,-2.721075058E0,1.634511566E1,-5.456213951E-1,1.657904576E1
3.339566042E0,-3.182953119E0,1.690798378E1,-2.773005068E-1,1.720720784E1
3.349612042E0,-1.125711799E0,1.724674606E1,-1.099847332E-1,1.728379511E1
3.359657042E0,1.196338773E0,1.677739143E1,9.139399529E-1,1.684480264E1
3.369703042E0,1.487719297E0,1.679531288E1,1.207046390E0,1.690422446E1
3.379748042E0,1.489774704E0,1.669710922E1,1.079472542E0,1.679815901E1
3.389793042E0,6.437574625E-1,1.563911247E1,2.418755591E-1,1.565422519E1
3.399839042E0,6.594993472E-1,1.572790051E1,4.232095778E-1,1.574740931E1
3.409884042E0,9.321228862E-1,1.514832497E1,1.048440933E0,1.521314664E1
3.419930042E0,9.484384656E-1,1.490563297E1,1.270522594E0,1.498971839E1
3.429975042E0,9.572449923E-1,1.462079811E1,1.315618157E0,1.471104709E1
3.440020042E0,9.891805649E-1,1.431687069E1,1.389634967E0,1.441812574E1
3.450066042E0,1.047243118E0,1.401361465E1,1.425625205E0,1.412481933E1
3.460111042E0,1.287086844E0,1.360158539E1,1.497107267E0,1.374412776E1
3.470156042E0,1.569050908E0,1.327634525E1,1.462977529E0,1.344855261E1
3.480202042E0,1.730744123E0,1.318448544E1,1.293467164E0,1.336035885E1
3.490247042E0,1.956787944E0,1.312053394E1,1.177250743E0,1.331778320E1
3.500293042E0,2.185568810E0,1.308709431E1,1.104741335E0,1.331424808E1
3.510338042E0,2.473127604E0,1.321006012E1,9.142347574E-1,1.347063004E1
3.520383042E0,2.823129654E0,1.345336246E1,6.906050444E-1,1.376371890E1
3.530429042E0,3.113932848E0,1.380692863E1,4.808153212E-1,1.416188686E1
3.540474042E0,3.591711521E0,1.427637672E1,1.288009435E-1,1.472181761E1
3.550520042E0,3.534801245E0,1.405896187E1,-6.002354026E-1,1.450894590E1
3.560565042E0,-3.050214052E-1,1.472853279E1,-1.125883222E0,1.477465158E1
3.570610042E0,-8.938524723E-1,1.460540581E1,-9.628536105E-1,1.466437650E1
3.580656042E0,-8.310273886E-1,1.432553959E1,-1.129607201E0,1.439401624E1
3.590701042E0,-1.290471196E0,1.419085789E1,-1.397944570E0,1.431782150E1
3.600747042E0,9.705013037E-2,1.332655239E1,1.505885273E-1,1.332775654E1
3.610792042E0,-3.634852767E-1,1.288108540E1,-3.655986488E-1,1.289139810E1
3.620837042E0,-3.690392673E-1,1.269644928E1,-4.750429690E-1,1.271069157E1
3.630883042E0,-5.597532988E-1,1.227713490E1,-8.792887330E-1,1.232130325E1
3.640928042E0,-6.287866831E-1,1.190528011E1,-1.128053784E0,1.197512307E1
3.650973042E0,-6.323883533E-1,1.159670925E1,-1.166515231E0,1.167237501E1
3.661019042E0,-6.320043802E-1,1.129326248E1,-1.139685631E0,1.136820524E1
3.671064042E0,-6.808704138E-1,1.096323109E1,-1.181216836E0,1.104768273E1
3.681110042E0,-7.630571723E-1,1.063107681E1,-1.145600915E0,1.071981585E1
3.691155042E0,-9.544420242E-1,1.025238514E1,-1.123015165E0,1.035777600E1
3.701200042E0,-1.101881027E0,9.990762711E0,-1.082465529E0,1.010946156E1
3.711246042E0,-1.296414375E0,9.685901642E0,-1.056086183E0,9.829175900E0
3.721291042E0,-1.453077435E0,9.491580009E0,-1.010621071E0,9.655199638E0
3.731336583E0,-1.582391977E0,9.406623840E0,-9.104124904E-1,9.582138976E0
3.741381583E0,-1.869191051E0,9.272642136E0,-8.151236773E-1,9.494218976E0
3.751426583E0,-2.122577667E0,9.212053299E0,-7.176173329E-1,9.480624271E0
3.761472583E0,-2.427463293E0,9.305342674E0,-4.594152868E-1,9.627722614E0
3.771517583E0,-2.803207636E0,9.402187347E0,-2.777528167E-1,9.815102984E0
3.781563583E0,-3.302547216E0,9.527832031E0,-3.894619271E-2,1.008404275E1
3.791608583E0,-3.866875172E0,9.835803986E0,2.985945344E-1,1.057283890E1
3.801653583E0,-2.009568453E0,1.010562897E1,-5.641478300E-1,1.031893236E1
3.811699583E0,1.029884517E-1,1.075815582E1,3.838504255E-1,1.076549416E1
3.821744583E0,2.471547946E-2,1.105662918E1,5.505333543E-1,1.107035441E1
3.831789583E0,9.888771176E-2,1.105180645E1,5.525674820E-1,1.106605329E1
3.841835583E0,1.775961071E-1,1.097595119E1,5.541533232E-1,1.099136620E1
3.851880583E0,2.571591139E-1,1.098496056E1,5.796816349E-1,1.100325043E1
3.861926583E0,5.488823056E-1,1.086523819E1,6.798752546E-1,1.090031665E1
3.871971583E0,7.499341965E-1,1.087686443E1,7.923911214E-1,1.093144386E1
3.882016583E0,9.995746017E-1,1.087839508E1,9.686620831E-1,1.096708417E1
3.892062583E0,1.044435024E0,1.093305397E1,1.009226561E0,1.102910023E1
3.902107583E0,3.558153510E-1,9.790585518E0,3.713464141E-1,9.804084226E0
3.912153583E0,3.216917515E-1,9.863161087E0,2.641887963E-1,9.871941447E0
3.922198583E0,3.822416663E-1,9.578865051E0,4.345217049E-1,9.596331251E0
3.932243583E0,4.473474324E-1,9.309414864E0,6.234330535E-1,9.340984616E0
3.942289583E0,5.139937997E-1,8.988245010E0,7.613841295E-1,9.035067448E0
3.952334583E0,5.198093653E-1,8.756609917E0,7.991408110E-1,8.808350870E0
3.962380583E0,5.323264599E-1,8.504012108E0,8.242793083E-1,8.560433971E0
3.972425583E0,5.573543310E-1,8.287197113E0,7.828964591E-1,8.342733767E0
3.982470583E0,6.208164096E-1,8.026738167E0,8.021473289E-1,8.090573462E0
3.992516583E0,7.122853398E-1,7.784033298E0,7.818706036E-1,7.855561497E0
4.002561583E0,8.267455697E-1,7.507937908E0,8.145229816E-1,7.597110474E0
4.012606583E0,8.842962384E-1,7.352968693E0,7.428040504E-1,7.443109988E0
4.022652583E0,1.042812824E0,7.131212234E0,7.310590744E-1,7.244038507E0
4.032697583E0,1.158534408E0,6.948487282E0,6.799109578E-1,7.077143236E0
4.042743583E0,1.318471193E0,6.786230087E0,6.251729727E-1,6.941334622E0
4.052788583E0,1.512135983E0,6.641818523E0,5.423665047E-1,6.833335200E0
4.062833583E0,1.676007628E0,6.548575401E0,4.664570391E-1,6.775723100E0
4.072879583E0,1.911871552E0,6.465075970E0,3.550074995E-1,6.751184374E0
4.082924583E0,2.131625891E0,6.431078911E0,2.475186437E-1,6.779665949E0
4.092970583E0,2.442184448E0,6.386487007E0,1.494804919E-1,6.839139243E0
4.103015583E0,2.826093435E0,6.375866890E0,-1.127632335E-2,6.974138646E0
4.113060583E0,3.189223289E0,6.447770119E0,-1.935230941E-1,7.195994433E0
4.123106583E0,3.666794538E0,6.513370514E0,-3.764085472E-1,7.484053783E0
4.133151583E0,4.580346942E-1,7.690612793E0,-7.776717655E-3,7.704244375E0
4.143197583E0,-6.818360686E-1,8.565197945E0,-4.144339561E-1,8.602282939E0
4.153242583E0,4.691906869E-1,8.275653839E0,-5.491467714E-1,8.307114333E0
4.163287583E0,3.955473304E-1,8.096466064E0,-4.405130744E-1,8.118083037E0
4.173333583E0,-6.358695030E-2,8.264323235E0,-4.584617019E-1,8.277274247E0
4.183378583E0,8.509307355E-2,8.118663788E0,-4.672510028E-1,8.132543638E0
4.193423583E0,-1.079644263E-2,8.106081963E0,-4.673833549E-1,8.119552238E0
4.203469583E0,4.851295426E-2,8.020952225E0,-4.608256221E-1,8.034325631E0
4.213514583E0,-1.245760098E-1,7.941536427E0,-4.762610495E-1,7.956779787E0
4.223560583E0,-1.275757849E-1,7.843397141E0,-4.698533714E-1,7.858493270E0
4.233605583E0,-1.735547334E-1,7.725986958E0,-4.784822762E-1,7.742734724E0
4.243650583E0,-3.144716620E-1,7.617475510E0,-5.262516141E-1,7.642104836E0
4.253696583E0,-4.351999164E-1,7.514568806E0,-5.777614117E-1,7.549301395E0
4.263741583E0,-5.159980655E-1,7.439071178E0,-6.199780107E-1,7.482673769E0
4.273787583E0,-6.249495745E-1,7.398228168E0,-6.856079102E-1,7.456165248E0
4.283832583E0,-7.009929419E-1,7.378928185E0,-7.447411418E-1,7.449470560E0
4.293877583E0,-3.550038934E-1,7.222337723E0,-3.311354518E-1,7.238635274E0
4.303923583E0,-1.228353605E-1,6.585002422E0,-8.507448435E-2,6.586697435E0
4.313968583E0,-8.432312310E-2,6.380443096E0,-1.291956007E-1,6.382308046E0
4.324014583E0,-1.412630975E-1,6.016090870E0,-1.930027604E-1,6.020843353E0
4.334059583E0,-1.771872789E-1,5.685855865E0,-2.421700358E-1,5.693768399E0
4.344104583E0,-1.978374422E-1,5.380661488E0,-2.840391695E-1,5.391784115E0
4.354150583E0,-2.186673582E-1,5.095232487E0,-3.343252540E-1,5.110869093E0
4.364195583E0,-2.333717197E-1,4.831706524E0,-3.539281487E-1,4.850269624E0
4.374240583E0,-2.562070191E-1,4.559336185E0,-3.952697217E-1,4.583604110E0
4.384286583E0,-2.574275434E-1,4.316614151E0,-3.774714768E-1,4.340727057E0
4.394331583E0,-2.689449191E-1,4.068581581E0,-4.171059728E-1,4.098739421E0
4.404377583E0,-2.740885317E-1,3.809341192E0,-3.874030709E-1,3.838787046E0
4.414422583E0,-2.838791013E-1,3.555840254E0,-3.739075065E-1,3.586696820E0
4.424467583E0,-2.982857525E-1,3.308568001E0,-3.603729308E-1,3.341476508E0
4.434513583E0,-3.061436713E-1,3.069849014E0,-3.388822675E-1,3.103633050E0
4.444558583E0,-3.110729158E-1,2.832972527E0,-2.972030938E-1,2.865454479E0
4.454604583E0,-3.077628613E-1,2.610798120E0,-2.713454068E-1,2.642841867E0
4.464649583E0,-2.823499143E-1,2.411546946E0,-2.422854155E-1,2.440078353E0
4.474694583E0,-2.588858604E-1,2.214468479E0,-2.160016149E-1,2.239988668E0
4.484740583E0,-2.388660908E-1,2.017377853E0,-1.973848939E-1,2.041036798E0
4.494785583E0,-2.212181240E-1,1.832478166E0,-1.793004274E-1,1.854470903E0
4.504831583E0,-2.014766335E-1,1.658563733E0,-1.616879404E-1,1.678561730E0
4.514876583E0,-1.850135028E-1,1.494316459E0,-1.423493922E-1,1.512440090E0
4.524921583E0,-1.726234257E-1,1.332159877E0,-1.247293353E-1,1.349076051E0
4.534967583E0,-1.627063453E-1,1.169620514E0,-1.085546315E-1,1.185862391E0
4.545012583E0,-1.525756866E-1,1.009617567E0,-9.181623161E-2,1.025201050E0
4.555058583E0,-1.444620937E-1,8.536698818E-1,-7.566975057E-2,8.691072861E-1
4.565103583E0,-1.337708235E-1,7.033081651E-1,-6.091791391E-2,7.185040017E-1
4.575148583E0,-1.205556989E-1,5.597879887E-1,-4.795524478E-2,5.746268131E-1
4.585194583E0,-1.027668491E-1,4.201866686E-1,-3.621283174E-2,4.340843593E-1
4.595239583E0,-8.344481885E-2,2.850552201E-1,-2.478414215E-2,2.980499455E-1
4.605284583E0,-6.241836026E-2,1.552244723E-1,-1.080228202E-2,1.676525508E-1
4.615330583E0,-4.824687913E-2,2.034254931E-2,2.188884653E-3,5.240583817E-2
4.625375583E0,-3.799956664E-2,-1.144616082E-1,1.592983678E-2,1.216519072E-1
4.635421583E0,-1.752918027E-2,-2.433724403E-1,2.368629351E-2,2.451498672E-1
4.645466583E0,7.181226276E-3,-3.592310548E-1,3.515391797E-2,3.610184465E-1
4.655511583E0,2.937148325E-2,-4.759414196E-1,4.590829462E-2,4.790516574E-1
4.665557583E0,4.138660431E-2,-5.959323049E-1,5.745570734E-2,6.001244215E-1
4.675602583E0,4.990712181E-2,-7.222308517E-1,6.472799927E-2,7.268409990E-1
4.685648583E0,5.438868701E-2,-8.478329778E-1,7.531768829E-2,8.529077568E-1
4.695693583E0,6.540592015E-2,-9.659785032E-1,8.719725162E-2,9.721089259E-1
4.705738583E0,8.244428784E-2,-1.082447886E0,9.782166779E-2,1.089981452E0
4.715784583E0,9.163165838E-2,-1.203838587E0,1.098530293E-1,1.212308291E0
4.725829583E0,1.023857743E-1,-1.330321431E0,1.195859239E-1,1.339603953E0
4.735875792E0,1.077829301E-1,-1.464561820E0,1.332146525E-1,1.474552348E0
4.745920792E0,1.134725139E-1,-1.607710958E0,1.438054591E-1,1.618113267E0
4.755965792E0,1.239421964E-1,-1.755164504E0,1.572842449E-1,1.766551001E0
4.766011792E0,1.434652954E-1,-1.901973367E0,1.694244742E-1,1.914886323E0
4.776056792E0,1.656204015E-1,-2.048853159E0,1.823107153E-1,2.063605239E0
4.786102792E0,1.877552569E-1,-2.196723938E0,2.016202360E-1,2.213932884E0
4.796147792E0,2.001312375E-1,-2.358722448E0,2.206535786E-1,2.377459169E0
4.806192792E0,2.107162476E-1,-2.526688814E0,2.362233251E-1,2.546440488E0
4.816238792E0,2.324124873E-1,-2.680006266E0,2.612234950E-1,2.702718421E0
4.826283792E0,2.553684115E-1,-2.835200787E0,2.628137469E-1,2.858784286E0
4.836329792E0,2.744126618E-1,-3.004957676E0,2.761247754E-1,3.030068949E0
4.846374792E0,3.003547788E-1,-3.174396753E0,2.960549295E-1,3.202289222E0
4.856419792E0,3.300583661E-1,-3.346415281E0,3.056143224E-1,3.376512087E0
4.866465792E0,3.606002629E-1,-3.509243011E0,3.071552813E-1,3.541068120E0
4.876510792E0,3.844582140E-1,-3.668810129E0,2.873661220E-1,3.700075022E0
4.886556792E0,3.940338790E-1,-3.857245922E0,2.956837714E-1,3.888577850E0
4.896601792E0,4.264690280E-1,-4.040278435E0,2.848830521E-1,4.072699844E0
4.906646792E0,4.012094736E-1,-4.278563976E0,2.488797307E-1,4.304534802E0
4.916692792E0,1.353426576E-1,-4.670459270E0,2.592215836E-1,4.679605033E0
4.926737792E0,1.645721793E-1,-4.897547245E0,2.193895876E-1,4.905220159E0
4.936782792E0,1.380550861E-1,-5.171216488E0,1.792418957E-1,5.176163331E0
4.946828792E0,1.156475171E-1,-5.460934639E0,1.388682276E-1,5.463924035E0
4.956873792E0,8.187463880E-2,-5.770740986E0,9.556841850E-2,5.772112984E0
4.966919792E0,5.490161479E-2,-6.115156174E0,3.668687865E-2,6.115512664E0
4.976964792E0,1.552814841E-1,-6.472297192E0,1.590109318E-1,6.476112086E0
4.987009792E0,6.040185690E-1,-6.162220001E0,5.256748796E-1,6.214026702E0
4.997055792E0,5.601885319E-1,-6.248223782E0,5.872884393E-1,6.300715779E0
5.007100792E0,4.757061005E-1,-6.261837482E0,5.337811708E-1,6.302525469E0
5.017146792E0,3.998006582E-1,-6.262342453E0,4.905633926E-1,6.294237524E0
5.027191792E0,3.395887315E-1,-6.301689148E0,4.564061463E-1,6.327314849E0
5.037236792E0,2.708597481E-1,-6.352136135E0,4.112250805E-1,6.371193338E0
5.047282792E0,1.865613759E-1,-6.434598923E0,3.892755210E-1,6.449062248E0
5.057327792E0,1.315977275E-1,-6.490286350E0,3.770303130E-1,6.502560013E0
5.067373792E0,8.936984092E-2,-6.565121174E0,3.774791956E-1,6.576571564E0
5.077418792E0,7.624818385E-2,-6.600388050E0,3.758323193E-1,6.611519200E0
5.087463792E0,-1.516855229E-2,-6.660282135E0,3.716491461E-1,6.670660484E0
5.097509792E0,4.121829197E-2,-6.672100067E0,3.696922660E-1,6.682461420E0
5.107554792E0,2.027066238E-2,-6.681271076E0,3.735714257E-1,6.691737420E0
5.117600792E0,-1.102653984E-2,-6.654396534E0,3.801406324E-1,6.665254813E0
5.127645792E0,-9.038421512E-2,-6.633337498E0,3.892143965E-1,6.645361052E0
5.137690792E0,-1.259230375E-1,-6.554301262E0,4.023443162E-1,6.567846115E0
5.147736792E0,-9.516192228E-2,-6.538663387E0,3.869669139E-1,6.550795225E0
5.157781792E0,-1.222811565E-1,-6.469213963E0,3.922088146E-1,6.482245732E0
5.167827792E0,-2.107476443E-1,-6.350390434E0,4.236592650E-1,6.367995007E0
5.177872792E0,-1.681314707E-1,-6.251060963E0,3.988223374E-1,6.266026700E0
5.187917792E0,-2.009975314E-1,-6.118070602E0,4.080311358E-1,6.134955363E0
5.197963792E0,-2.220556885E-1,-5.963997364E0,4.190763533E-1,5.982825275E0
5.208008792E0,-2.244922072E-1,-5.819848537E0,4.184694588E-1,5.839190906E0
5.218053792E0,-2.241744995E-1,-5.659084797E0,4.132416546E-1,5.678579365E0
5.228099792E0,-2.404780984E-1,-5.475675106E0,4.221714139E-1,5.497188034E0
5.238144792E0,-2.325328290E-1,-5.291552067E0,4.032981396E-1,5.311990604E0
5.248190792E0,-2.274848074E-1,-5.102619648E0,3.908318281E-1,5.122619069E0
5.258235792E0,-2.291492820E-1,-4.911395073E0,3.950830102E-1,4.932585685E0
5.268280792E0,-2.264962494E-1,-4.716168880E0,3.847227097E-1,4.737252476E0
5.278326792E0,-2.224096209E-1,-4.504060745E0,3.768053949E-1,4.525263699E0
5.288371792E0,-2.193397880E-1,-4.290414333E0,3.722144067E-1,4.312111856E0
5.298417792E0,-2.087894082E-1,-4.085069180E0,3.553470075E-1,4.105807438E0
5.308462792E0,-2.052005380E-1,-3.863706589E0,3.573148549E-1,3.885615752E0
5.318507792E0,-1.997091025E-1,-3.645464659E0,3.446941376E-1,3.667166529E0
5.328553792E0,-1.869155467E-1,-3.430376053E0,3.216055036E-1,3.450485094E0
5.338598792E0,-1.848097891E-1,-3.203142405E0,3.247666657E-1,3.224864231E0
5.348644792E0,-1.915883124E-1,-2.966781378E0,2.987794876E-1,2.987936915E0
5.358689792E0,-2.105436325E-1,-2.735934258E0,2.777378559E-1,2.758043364E0
5.368734792E0,-2.052956223E-1,-2.529306412E0,2.654914558E-1,2.551474658E0
5.378780792E0,-1.899086833E-1,-2.328869104E0,2.353916168E-1,2.348426245E0
5.388825792E0,-1.808651090E-1,-2.126591682E0,2.224438190E-1,2.145829822E0
5.398871792E0,-1.759710163E-1,-1.928525925E0,2.046440393E-1,1.947320524E0
5.408916792E0,-1.667985618E-1,-1.734735608E0,1.832650453E-1,1.752345704E0
5.418961792E0,-1.537139118E-1,-1.548057437E0,1.686754376E-1,1.564787908E0
5.429007792E0,-1.389647871E-1,-1.370091796E0,1.458131075E-1,1.384819195E0
5.439052792E0,-1.246335208E-1,-1.195599556E0,1.280386448E-1,1.208877871E0
5.449098792E0,-1.084058210E-1,-1.025785208E0,1.116468236E-1,1.037522109E0
5.459143792E0,-9.143562615E-2,-8.576005101E-1,9.119001776E-2,8.672685444E-1
5.469188792E0,-7.900931686E-2,-6.864497662E-1,7.519087195E-2,6.950607318E-1
5.479234792E0,-6.800566614E-2,-5.131485462E-1,5.609387159E-2,5.206656543E-1
5.489279792E0,-5.837700889E-2,-3.324706554E-1,3.629960492E-2,3.395029797E-1
5.499324792E0,-4.619357735E-2,-1.513125896E-1,1.594799384E-2,1.590084428E-1
5.509370792E0,-2.496019565E-2,2.101177536E-2,-2.334503923E-3,3.271018158E-2
5.519415792E0,-5.336818285E-4,1.863176525E-1,-2.143229917E-2,1.875470498E-1
5.529461792E0,2.712697163E-2,3.433099389E-1,-3.707575053E-2,3.463700305E-1
5.539506792E0,4.930284619E-2,4.940997362E-1,-5.439615250E-2,4.995240348E-1
5.549551792E0,6.201251969E-2,6.457297206E-1,-7.300855219E-2,6.527960427E-1
5.559597792E0,6.847867370E-2,7.986286879E-1,-8.717150986E-2,8.062852981E-1
5.569642792E0,7.020067424E-2,9.520207644E-1,-1.016548499E-1,9.600028015E-1
5.579688792E0,7.760639489E-2,1.101816058E0,-1.159296632E-1,1.110612923E0
5.589733792E0,9.192647785E-2,1.245077014E0,-1.302576810E-1,1.255242730E0
5.599778792E0,1.084609777E-1,1.388869047E0,-1.466529071E-1,1.400795520E0
5.609824792E0,1.261925697E-1,1.532500029E0,-1.603932232E-1,1.546029394E0
5.619869792E0,1.396572590E-1,1.685290694E0,-1.752438098E-1,1.700123309E0
5.629915792E0,1.513163000E-1,1.841775060E0,-1.875680089E-1,1.857475101E0
5.639960792E0,1.638259590E-1,1.998125792E0,-1.999762058E-1,2.014779419E0
5.650005792E0,1.795095950E-1,2.153480530E0,-2.122247219E-1,2.171345532E0
5.660051792E0,1.979905963E-1,2.309838772E0,-2.266848832E-1,2.329365035E0
5.670096792E0,2.096906602E-1,2.473065615E0,-2.421647757E-1,2.493725624E0
5.680142792E0,2.185957283E-1,2.655641317E0,-2.638264000E-1,2.677651820E0
5.690187792E0,2.410539091E-1,2.829919815E0,-2.750917971E-1,2.853459066E0
5.700232792E0,2.327544242E-1,3.001015425E0,-2.901061475E-1,3.023975823E0
5.710278792E0,1.638725698E-1,3.262668848E0,-3.022556901E-1,3.280734786E0
5.720323792E0,1.929303259E-1,3.412057877E0,-3.228989244E-1,3.432728474E0
5.730369583E0,2.889239788E-1,3.551428556E0,-2.814374566E-1,3.574259210E0
5.740414583E0,3.935651481E-1,3.503440857E0,-2.308323383E-1,3.533026314E0
5.750459583E0,3.908535242E-1,3.310558558E0,-1.862422228E-1,3.338749857E0
5.760505583E0,4.260820746E-1,3.019427776E0,-1.100454628E-1,3.051327586E0
5.770550583E0,4.538918734E-1,2.728237867E0,-4.190769047E-2,2.766054220E0
5.780596583E0,4.187229872E-1,2.441575766E0,-1.194526069E-2,2.477249250E0
5.790641583E0,3.700813949E-1,2.242835283E0,-9.194799699E-3,2.273181667E0
5.800686583E0,2.833563387E-1,2.092885971E0,-3.685439005E-2,2.112302239E0
5.810732583E0,2.069457322E-1,2.005489111E0,-7.321324944E-2,2.017467048E0
5.820777583E0,1.516478658E-1,1.949810505E0,-1.089355573E-1,1.958730465E0
5.830822583E0,8.516018093E-2,1.857880354E0,-1.435943693E-1,1.865366186E0
5.840868583E0,8.287332207E-2,1.775185823E0,-1.369327456E-1,1.782386959E0
5.850913583E0,7.702714950E-2,1.627120137E0,-1.246091127E-1,1.633701489E0
5.860959583E0,6.844138354E-2,1.438744426E0,-1.097478792E-1,1.444546414E0
5.871004583E0,5.935654789E-2,1.232785583E0,-9.003335238E-2,1.237493231E0
5.881049583E0,6.556224823E-2,1.048401594E0,-6.417591870E-2,1.052408124E0
5.891095583E0,8.868940920E-2,9.077014923E-1,-2.451974899E-2,9.123535655E-1
5.901140583E0,9.369029105E-2,7.684506178E-1,-1.820029225E-3,7.741430973E-1
5.911186583E0,5.822923407E-2,5.886149406E-1,-1.266373321E-2,5.916236660E-1
5.921231583E0,1.875319704E-2,3.985944092E-1,-2.967920154E-2,4.001375269E-1
5.931276583E0,1.301727910E-2,2.633465827E-1,-1.697256416E-2,2.642138151E-1
5.941322583E0,4.794503096E-3,1.113735735E-1,-7.685322315E-3,1.117413277E-1
5.951367583E0,-2.003483241E-3,-4.691860080E-2,1.254167873E-3,4.697810110E-2
5.961413583E0,-6.884790957E-3,-1.628603786E-1,1.056670956E-2,1.633479679E-1
5.971458583E0,-8.580692112E-3,-2.188858390E-1,1.604120806E-2,2.196405225E-1
5.981503583E0,-9.707741439E-3,-2.266263068E-1,1.633255742E-2,2.274213613E-1
5.991549583E0,-7.943129167E-3,-1.804546714E-1,1.270495355E-2,1.810756681E-1
6.001594583E0,-3.157162108E-3,-9.013462812E-2,6.010565907E-3,9.038996493E-2
6.011640583E0,-1.065125689E-4,1.904340275E-2,-1.855235663E-3,1.913385566E-2
6.021685583E0,5.488788709E-3,1.205250174E-1,-8.877192624E-3,1.209760768E-1
6.031730583E0,7.908536121E-3,1.676465273E-1,-1.123413909E-2,1.682085281E-1
6.041776583E0,7.325570099E-3,1.611936837E-1,-1.159366593E-2,1.617760203E-1
6.051821583E0,4.139100201E-3,1.308517605E-1,-1.012515370E-2,1.313081647E-1
6.061867583E0,5.819288082E-3,1.321569681E-1,-9.447911754E-3,1.326219868E-1
6.071912583E0,8.469399996E-3,1.552000940E-1,-1.144123543E-2,1.558515376E-1
6.081957583E0,7.774581201E-3,1.376504004E-1,-8.395112120E-3,1.381251416E-1
6.092003583E0,3.849347588E-3,7.102786005E-2,-5.470318720E-3,7.134212477E-2
6.102048583E0,1.239715959E-3,2.611365356E-2,-2.413010225E-3,2.625418854E-2
6.112094583E0,8.210670203E-4,4.491071776E-2,-2.239531837E-3,4.497401720E-2
6.122139583E0,3.211786738E-3,8.855433762E-2,-5.686194636E-3,8.879481457E-2
6.132184583E0,1.487962808E-2,1.031465083E-1,-3.074625274E-4,1.042146825E-1
6.142230583E0,9.774841368E-2,1.771336347E-1,6.916109473E-2,2.138091063E-1
6.152275583E0,2.332886606E-1,3.498564959E-1,1.766705662E-1,4.561092587E-1
6.162321583E0,3.604623079E-1,4.789902568E-1,2.399752289E-1,6.457188645E-1
6.172366583E0,4.577188492E-1,5.001225471E-1,2.038417906E-1,7.079410870E-1
6.182411583E0,5.120611787E-1,4.151216149E-1,1.559086144E-1,6.773773704E-1
6.192457583E0,5.584835410E-1,3.447866142E-1,1.178425029E-1,6.668347099E-1
6.202502583E0,5.906183124E-1,3.362530470E-1,8.016116917E-2,6.843404968E-1
6.212548583E0,5.701707602E-1,3.904494047E-1,5.891793966E-2,6.935537160E-1
6.222593583E0,5.015619397E-1,3.380399942E-1,4.492888972E-2,6.065097050E-1
6.232638583E0,3.886521459E-1,2.825564146E-1,5.487893522E-2,4.836324177E-1
6.242684583E0,2.684769928E-1,2.543474138E-1,1.009787917E-1,3.833656466E-1
6.252729583E0,1.672992557E-1,2.103925049E-1,1.848381609E-1,3.262195470E-1
6.262775583E0,1.190776676E-1,1.960556507E-1,2.755046785E-1,3.584970529E-1
6.272820583E0,7.201162726E-2,1.897513568E-1,3.815606236E-1,4.321802418E-1
6.282865583E0,-1.920111105E-2,1.726892740E-1,5.112987161E-1,5.400154119E-1
6.292911583E0,-1.388329715E-1,6.741505116E-2,6.090633273E-1,6.283132338E-1
6.302956583E0,-2.786294818E-1,-2.575697191E-2,6.349822879E-1,6.939022378E-1
6.313002583E0,-3.863383830E-1,-9.339670837E-2,6.005941629E-1,7.202038877E-1
6.323047583E0,-4.378199577E-1,-9.304837137E-2,5.216628909E-1,6.873692505E-1
6.333092583E0,-4.391555190E-1,-8.481789380E-2,4.233995676E-1,6.158886578E-1
6.343138583E0,-3.882856667E-1,-7.287947834E-2,3.030893803E-1,4.979360900E-1
6.353183583E0,-3.152005374E-1,-3.943375498E-2,1.924722791E-1,3.714188714E-1
6.363229583E0,-2.259268612E-1,5.173897371E-4,1.243219748E-1,2.578743254E-1
6.373274583E0,-1.206465065E-1,4.505473375E-2,9.209729731E-2,1.583269426E-1
6.383319583E0,-3.267150605E-3,9.646466374E-2,9.274099022E-2,1.338543869E-1
6.393365583E0,9.859103709E-2,1.492876112E-1,1.103936434E-1,2.102230719E-1
6.403410583E0,1.516678333E-1,1.953943819E-1,1.472011954E-1,2.878372597E-1
6.413456583E0,1.727006882E-1,2.065631449E-1,1.941790432E-1,3.319628916E-1
6.423501583E0,1.760831624E-1,2.223354578E-1,2.048077136E-1,3.498350118E-1
6.433546583E0,1.714940071E-1,2.092914134E-1,1.842626333E-1,3.273618919E-1
6.443592583E0,1.590487957E-1,1.891485900E-1,1.463834345E-1,2.872312977E-1
6.453637583E0,1.448903531E-1,1.427933723E-1,1.120771915E-1,2.322594636E-1
6.463683583E0,1.133244485E-1,3.796149418E-2,7.677859068E-2,1.420508981E-1
6.473728583E0,5.951873586E-2,-2.034122869E-2,2.758297324E-2,6.868089920E-2
6.483773583E0,1.656700671E-2,-4.580264539E-2,-1.518186298E-3,4.873041068E-2
6.493819583E0,-1.303109527E-2,-3.735575080E-2,-1.924366504E-2,4.399522935E-2
6.503864583E0,-2.203737386E-2,-1.234840043E-2,-4.610643908E-2,5.257311637E-2
6.513910583E0,-7.205700502E-3,8.111868054E-3,-7.355903834E-2,7.435493692E-2
6.523955583E0,1.687753201E-2,2.010275051E-2,-8.725062013E-2,9.111334906E-2
6.534000583E0,5.271808431E-2,3.433965519E-2,-7.912520319E-2,1.010900891E-1
6.544046583E0,8.202511072E-2,6.097925454E-2,-5.250903964E-2,1.149077348E-1
6.554091583E0,1.019937620E-1,1.092420667E-1,-2.447736077E-2,1.514453625E-1
6.564137583E0,1.135646626E-1,1.352113485E-1,-1.767111942E-2,1.774579100E-1
6.574182583E0,1.146730706E-1,1.320999563E-1,-4.086468741E-2,1.796391779E-1
6.584227583E0,1.136877015E-1,1.057463735E-1,-7.884030044E-2,1.741349533E-1
6.594273583E0,1.055703834E-1,6.522320956E-2,-1.203416735E-1,1.728620586E-1
6.604318583E0,8.423846215E-2,1.164333802E-2,-1.537355930E-1,1.756881281E-1
6.614364583E0,5.729366466E-2,-4.223297164E-2,-1.781674176E-1,1.918588455E-1
6.624409583E0,3.771889955E-2,-7.960271835E-2,-1.925580800E-1,2.117496690E-1
6.634454583E0,2.762445621E-2,-9.547814727E-2,-1.838970631E-1,2.090390323E-1
6.644500583E0,3.158644214E-2,-8.273971081E-2,-1.690382212E-1,1.908336535E-1
6.654545583E0,6.592736393E-2,-5.882952362E-2,-1.492617279E-1,1.734542983E-1
6.664591583E0,1.113691479E-1,-2.580153570E-2,-1.394804716E-1,1.803430296E-1
6.674636583E0,1.508174837E-1,3.216364607E-2,-1.334202290E-1,2.039151073E-1
6.684681583E0,1.734359860E-1,8.234159648E-2,-1.003981084E-1,2.166563175E-1
6.694727583E0,1.726721823E-1,8.538739383E-2,-5.196341872E-2,1.995166320E-1
6.704772583E0,1.388095617E-1,3.793891519E-2,-8.745907806E-3,1.441663852E-1
6.714818583E0,8.844226599E-2,-6.010520272E-3,1.863799058E-2,9.058441069E-2
6.724863583E0,4.360315204E-2,-3.440035135E-2,1.779643074E-2,5.832093953E-2
6.734908792E0,1.637126692E-2,-4.972302541E-2,2.097701654E-4,5.234922769E-2
6.744954792E0,1.649110951E-2,-4.337937385E-2,-1.885500178E-2,5.009229342E-2
6.754999792E0,3.111106344E-2,-2.363097109E-2,-3.394766897E-2,5.175678981E-2
6.765045792E0,4.873453453E-2,-9.464552626E-3,-3.499721736E-2,6.074074279E-2
6.775090792E0,5.920021981E-2,2.344496083E-3,-1.027167775E-2,6.013044197E-2
6.785135792E0,4.441941157E-2,-6.062571425E-3,2.501973324E-2,5.134029555E-2
6.795181792E0,2.107281052E-2,-3.450415283E-2,3.944985196E-2,5.648796974E-2
6.805226792E0,-7.835004479E-3,-9.331926703E-2,3.840589151E-2,1.012170213E-1
6.815272792E0,-4.152026400E-2,-1.708581746E-1,2.627135627E-2,1.777825422E-1
6.825317792E0,-6.795693189E-2,-2.141545117E-1,4.807078280E-3,2.247296319E-1
6.835362792E0,-8.712316304E-2,-2.257430851E-1,5.300569348E-3,2.420299198E-1
6.845408792E0,-8.308075368E-2,-1.990267932E-1,1.276301313E-2,2.160485375E-1
6.855453792E0,-6.411958486E-2,-1.707385927E-1,1.336184889E-2,1.828702470E-1
6.865499792E0,-2.182671987E-2,-1.467813402E-1,-3.987043165E-4,1.483958440E-1
6.875544792E0,5.152073130E-2,-1.193515211E-1,-1.664063148E-2,1.310575521E-1
6.885589792E0,1.416660696E-1,-7.005986571E-2,-3.064006940E-2,1.609859432E-1
6.895635792E0,2.026149035E-1,-3.604316711E-2,-1.854667440E-2,2.066298336E-1
6.905680792E0,2.256967872E-1,-3.000604734E-2,1.450262219E-2,2.281440963E-1
6.915726792E0,2.160175443E-1,-2.819698863E-2,6.548129022E-2,2.274784583E-1
6.925771792E0,1.999695897E-1,-3.854203969E-2,1.004539207E-1,2.270777748E-1
6.935816792E0,1.952307671E-1,-8.258607984E-2,1.053626090E-1,2.367209167E-1
6.945862792E0,2.033978850E-1,-1.172572449E-1,7.507900149E-2,2.464889806E-1
6.955907792E0,2.197733968E-1,-9.097766876E-2,3.155948594E-2,2.399443338E-1
6.965953792E0,2.464039326E-1,-4.200905934E-2,-3.887983738E-3,2.499895507E-1
6.975998792E0,2.654165030E-1,-4.323405400E-2,-3.229037300E-2,2.708463986E-1
6.986043792E0,2.686935067E-1,-6.246420741E-2,-6.904199719E-2,2.843673243E-1
6.996089792E0,2.626265585E-1,-8.936048299E-2,-8.765626699E-2,2.909323398E-1
7.006134792E0,2.501382232E-1,-9.534593672E-2,-8.183193952E-2,2.799222118E-1
7.016180792E0,2.298531830E-1,-1.509545743E-1,-6.226878613E-2,2.819524268E-1
7.026225792E0,1.956456751E-1,-2.120216638E-1,-4.763338715E-2,2.924027285E-1
7.036270792E0,1.436320096E-1,-2.480074912E-1,-3.503029048E-2,2.887299623E-1
7.046316792E0,7.593419403E-2,-2.437427193E-1,-2.045827173E-2,2.561153176E-1
7.056361792E0,2.918693237E-2,-2.320201397E-1,-1.410275511E-2,2.342735793E-1
7.066407792E0,1.749432459E-2,-1.935142875E-1,-1.645805500E-2,1.949992267E-1
7.076452792E0,-8.846838027E-4,-1.393541098E-1,-1.770814322E-2,1.404775032E-1
7.086498792E0,-1.727484167E-2,-8.614814281E-2,-1.219646446E-2,8.870556020E-2
7.096543792E0,-1.490356587E-2,-7.114429958E-3,-1.334603783E-2,2.123318429E-2
7.106588792E0,-1.209339872E-2,6.862933189E-2,-1.151964255E-2,7.063241219E-2
7.116634792E0,-5.264519714E-3,1.249441504E-1,-5.765301175E-3,1.251878373E-1
7.126679792E0,-1.690291101E-3,1.201978698E-1,-4.356223159E-3,1.202886598E-1
7.136725792E0,-2.050351351E-3,9.088900685E-2,-1.223768573E-2,9.173209067E-2
7.146770792E0,-1.703942195E-2,4.417582974E-2,-1.921996288E-2,5.110041885E-2
7.156815792E0,-4.123237357E-2,7.068295963E-4,-3.842353821E-2,5.636467445E-2
7.166861792E0,-7.254422456E-2,-8.371803910E-2,-8.031746000E-2,1.368293425E-1
7.176906792E0,-1.136977896E-1,-1.908931136E-1,-1.340433210E-1,2.594898458E-1
7.186952792E0,-1.482214034E-1,-2.871463895E-1,-1.833829135E-1,3.715533964E-1
7.196997792E0,-1.854247153E-1,-3.727243841E-1,-2.050170302E-1,4.640450131E-1
7.207042792E0,-2.056466192E-1,-4.539843500E-1,-2.194372565E-1,5.445594839E-1
7.217088792E0,-1.991045624E-1,-4.733982384E-1,-2.287381440E-1,5.622007270E-1
7.227133792E0,-1.692768931E-1,-4.439647198E-1,-2.175747007E-1,5.225878771E-1
7.237179792E0,-1.163239256E-1,-4.174800813E-1,-1.910124421E-1,4.736102058E-1
7.247224792E0,-5.104399472E-2,-3.904021382E-1,-1.429072320E-1,4.188577275E-1
7.257269792E0,1.321755070E-2,-4.083591700E-1,-6.069789454E-2,4.130570781E-1
7.267315792E0,7.091200352E-2,-4.916394055E-1,3.262300044E-2,4.977972252E-1
7.277360792E0,1.007639095E-1,-4.684630334E-1,8.420517296E-2,4.865197738E-1
7.287406792E0,1.208292320E-1,-3.905005753E-1,1.401754916E-1,4.321337421E-1
7.297451792E0,1.455391049E-1,-3.416738212E-1,2.115565836E-1,4.274094281E-1
7.307496792E0,1.606461555E-1,-2.814416289E-1,2.586218119E-1,4.146104429E-1
7.317542792E0,1.804036200E-1,-2.421460301E-1,2.692119479E-1,4.045432472E-1
7.327587792E0,2.070773095E-1,-2.333032638E-1,2.497575581E-1,3.996126410E-1
7.337633792E0,2.153341621E-1,-2.982335389E-1,1.993554831E-1,4.183953318E-1
7.347678792E0,2.046223879E-1,-3.744809330E-1,1.487045437E-1,4.519063311E-1
7.357723792E0,1.916988790E-1,-3.979791105E-1,1.453958750E-1,4.650546130E-1
7.367769792E0,1.568772495E-1,-4.607753754E-1,1.772451550E-1,5.180156976E-1
7.377814792E0,1.084559187E-1,-5.730538964E-1,1.974756420E-1,6.157516412E-1
7.387860792E0,5.338707939E-2,-6.176115274E-1,1.942537427E-1,6.496373570E-1
7.397905792E0,1.657766290E-2,-5.898348093E-1,1.993161589E-1,6.228216859E-1
7.407950792E0,2.170398273E-2,-5.376661420E-1,2.285795063E-1,5.846405167E-1
7.417996792E0,6.334596127E-2,-4.872806072E-1,2.457072139E-1,5.493879649E-1
7.428041792E0,1.348790079E-1,-3.987608552E-1,2.425282001E-1,4.858214634E-1
7.438087792E0,2.080589384E-1,-3.647176623E-1,2.367538661E-1,4.820372269E-1
7.448132792E0,2.609868646E-1,-3.992362320E-1,2.221746445E-1,5.261798980E-1
7.458178792E0,2.841672897E-1,-4.784307480E-1,1.999371052E-1,5.912883182E-1
7.468223792E0,2.676080465E-1,-6.165913343E-1,1.801943034E-1,6.958943362E-1
7.478268792E0,2.344231755E-1,-7.716807127E-1,1.594832540E-1,8.221193684E-1
7.488314792E0,2.314438969E-1,-8.469983339E-1,1.377033889E-1,8.887826947E-1
7.498359792E0,2.415940017E-1,-8.250904083E-1,1.268507987E-1,8.690414079E-1
7.508405792E0,2.226349562E-1,-7.967093587E-1,1.287019551E-1,8.371835636E-1
7.518450792E0,1.773790568E-1,-7.573512197E-1,1.248294190E-1,7.877985679E-1
7.528495792E0,9.124337137E-2,-7.754237056E-1,1.155062243E-1,7.892711599E-1
7.538541792E0,-2.113669179E-2,-8.851445913E-1,9.236045927E-2,8.902011917E-1
7.548586792E0,-6.998199224E-2,-1.058266044E0,5.895270407E-2,1.062214630E0
7.558632792E0,-6.684318930E-2,-1.150641561E0,2.943700552E-2,1.152957306E0
7.568677792E0,-3.075390309E-2,-1.199677110E0,3.240243345E-2,1.200508595E0
7.578722792E0,6.440871395E-3,-1.213098526E0,6.232773885E-2,1.214715714E0
7.588768792E0,-4.031210672E-3,-1.165616035E0,1.103802174E-1,1.170837643E0
7.598813792E0,-2.947931178E-2,-1.160854459E0,1.677005589E-1,1.173275578E0
7.608859792E0,-4.912305251E-2,-1.204007268E0,2.083798051E-1,1.222893584E0
7.618904792E0,-6.070940197E-2,-1.246522546E0,2.330143154E-1,1.269566761E0
7.628949792E0,-4.656428844E-2,-1.280712724E0,2.550234497E-1,1.306686754E0
7.638995792E0,1.684200484E-3,-1.287533879E0,1.956493109E-1,1.302315238E0
7.649040792E0,1.090455428E-1,-1.228104115E0,-4.135338590E-2,1.233629097E0
7.659086792E0,2.473048866E-1,-1.220870137E0,-2.754377127E-1,1.275754495E0
7.669131792E0,3.295731246E-1,-1.188121557E0,-4.005277157E-1,1.296408011E0
7.679177792E0,3.703793883E-1,-1.119945407E0,-3.527150154E-1,1.231205299E0
7.689222792E0,3.445270360E-1,-1.115920663E0,-1.315296143E-1,1.175277773E0
7.699267792E0,2.674860358E-1,-1.349187255E0,9.521874040E-2,1.378739147E0
7.709313792E0,1.953729689E-1,-1.558357000E0,2.187561244E-1,1.585717938E0
7.719358792E0,1.659162790E-1,-1.636912346E0,2.459231913E-1,1.663577006E0
7.729404792E0,1.598059237E-1,-1.633518457E0,2.061169147E-1,1.654208169E0
7.739450542E0,1.643716395E-1,-1.534206629E0,1.139976382E-1,1.547192127E0
7.749495542E0,1.312549710E-1,-1.430049062E0,2.475404367E-2,1.436273285E0
7.759541542E0,6.805630028E-2,-1.379495621E0,-9.248242714E-3,1.381204314E0
7.769586542E0,2.922395058E-2,-1.399849057E0,-1.492862357E-4,1.400154079E0
7.779632542E0,4.779594019E-3,-1.520389318E0,2.479505353E-2,1.520599000E0
7.789677542E0,-5.187090114E-2,-1.721608758E0,1.047474146E-1,1.725572174E0
7.799722542E0,-1.209458411E-1,-1.967044592E0,2.477488369E-1,1.986270830E0
7.809768542E0,-1.560093015E-1,-2.061408520E0,3.496304452E-1,2.096660544E0
7.819813542E0,-1.858050078E-1,-1.970790386E0,3.766885996E-1,2.015051500E0
7.829859542E0,-2.252237797E-1,-1.748343229E0,3.234655857E-1,1.792222024E0
7.839904542E0,-2.623367906E-1,-1.464832902E0,2.129791230E-1,1.503301743E0
7.849949542E0,-2.794180512E-1,-1.324314833E0,1.074649543E-1,1.357730805E0
7.859995542E0,-2.792598605E-1,-1.446139216E0,1.048806682E-1,1.476585472E0
7.870040542E0,-2.466230690E-1,-1.600571871E0,1.604187489E-1,1.627386686E0
7.880086542E0,-1.609025896E-1,-1.630415559E0,1.971963197E-1,1.650160879E0
7.890131542E0,-3.991597146E-2,-1.655416250E0,2.236460447E-1,1.670932015E0
7.900177542E0,6.244102493E-2,-1.677069306E0,2.842896879E-1,1.702140114E0
7.910222542E0,1.208555996E-1,-1.708980918E0,4.007507861E-1,1.759495111E0
7.920267542E0,1.779215485E-1,-1.561030388E0,4.928253293E-1,1.646617367E0
7.930313542E0,1.867105067E-1,-1.293130994E0,5.112104416E-1,1.402991339E0
7.940358542E0,1.484805644E-1,-1.036980629E0,4.739593565E-1,1.149788143E0
7.950404542E0,9.950796515E-2,-8.573379517E-1,4.636169970E-1,9.797300232E-1
7.960449542E0,2.374955639E-2,-7.822568417E-1,5.206568837E-1,9.399858501E-1
7.970494542E0,-6.445966661E-2,-6.855007410E-1,6.032587886E-1,9.154165612E-1
7.980540542E0,-9.781841934E-2,-6.715909243E-1,6.842343211E-1,9.637320265E-1
7.990585542E0,-6.133550778E-2,-6.558862925E-1,6.926965117E-1,9.559170103E-1
8.000631542E0,2.966710180E-2,-6.535650492E-1,6.358545423E-1,9.123258241E-1
8.010676542E0,1.032145619E-1,-6.947321892E-1,5.972282887E-1,9.219477693E-1
8.020721542E0,1.191924587E-1,-9.150587320E-1,6.712430120E-1,1.141098815E0
8.030767542E0,1.687477529E-1,-1.174975872E0,6.243852377E-1,1.341231162E0
8.040812542E0,2.804311514E-1,-1.131670475E0,3.680327833E-1,1.222606979E0
8.050858542E0,3.635992706E-1,-1.017261267E0,1.354368180E-1,1.088746089E0
8.060903542E0,3.731757402E-1,-9.865339994E-1,4.812631011E-2,1.055853023E0
8.070949542E0,2.774369717E-1,-1.091637492E0,9.642726183E-2,1.130460926E0
8.080994542E0,9.735693783E-2,-1.142175794E0,1.598054320E-1,1.157402995E0
8.091039542E0,-6.794387102E-2,-1.087046981E0,1.707776636E-1,1.102475632E0
8.101085542E0,-1.458336264E-1,-1.056446075E0,1.509804875E-1,1.077098354E0
8.111130542E0,-1.460285634E-1,-1.023480177E0,1.267635673E-1,1.041587738E0
8.121176542E0,-1.134865955E-1,-9.550919533E-1,1.181553677E-1,9.690410401E-1
8.131221542E0,-6.109183282E-2,-8.590642214E-1,1.371501088E-1,8.720858334E-1
8.141266542E0,7.982842624E-3,-8.768202662E-1,2.485495806E-1,9.114024353E-1
8.151312542E0,5.500281602E-2,-8.956112266E-1,3.714182675E-1,9.711314578E-1
8.161357542E0,1.048699766E-1,-8.870086074E-1,4.542850554E-1,1.002076291E0
8.171403542E0,1.588474512E-1,-8.935264349E-1,4.782247543E-1,1.025826944E0
8.181448542E0,1.973378509E-1,-9.092235565E-1,4.283721447E-1,1.024271642E0
8.191493542E0,2.054924518E-1,-9.562398195E-1,3.351937234E-1,1.033913233E0
8.201539542E0,1.800605953E-1,-1.003933311E0,2.252849489E-1,1.044536844E0
8.211584542E0,1.398905367E-1,-1.065150619E0,1.407900304E-1,1.083483749E0
8.221630542E0,9.688954055E-2,-1.168185353E0,8.825004101E-2,1.175513791E0
8.231675542E0,6.521043926E-2,-1.155114889E0,3.136039525E-2,1.157379058E0
8.241720542E0,3.840173408E-2,-1.107231855E0,-1.141951047E-2,1.107956443E0
8.251766542E0,1.483835187E-2,-1.105158091E0,-3.416317329E-2,1.105785560E0
8.261811542E0,8.863548748E-3,-1.119324565E0,-1.597234048E-2,1.119473608E0
8.271857542E0,1.434273645E-2,-1.119433522E0,2.326614223E-2,1.119767136E0
8.281902542E0,3.450899571E-2,-1.111154199E0,5.124986917E-2,1.112870645E0
8.291948542E0,6.270255148E-2,-1.034475684E0,6.343675405E-2,1.038313909E0
8.301993542E0,8.503954858E-2,-9.670955539E-1,5.004022270E-2,9.721160214E-1
8.312038542E0,8.506511152E-2,-1.002710223E0,4.255327582E-2,1.007211322E0
8.322084542E0,5.664891750E-2,-1.065542459E0,4.459848255E-2,1.067978866E0
8.332129542E0,1.728499867E-2,-1.163102269E0,2.921260148E-2,1.163597454E0
8.342175542E0,-9.093346074E-3,-1.179525852E0,3.026751569E-3,1.179564787E0
8.352220542E0,-3.399789706E-2,-1.208338261E0,-1.148161758E-2,1.208870976E0
8.362265542E0,-3.050675243E-2,-1.214423060E0,-1.778044552E-2,1.214936285E0
8.372311542E0,-5.225097761E-3,-1.203803897E0,-9.539293125E-3,1.203853032E0
8.382356542E0,3.961347416E-2,-1.199195385E0,2.339114249E-2,1.200077474E0
8.392402542E0,8.490639180E-2,-1.218364835E0,8.490696549E-2,1.224267601E0
8.402447542E0,1.256751269E-1,-1.160123229E0,1.246585995E-1,1.173550131E0
8.412493542E0,1.598448157E-1,-1.061603904E0,1.212454885E-1,1.080395151E0
8.422538542E0,1.644017547E-1,-1.047733784E0,8.868467063E-2,1.064255134E0
8.432583542E0,1.492992342E-1,-1.015286326E0,6.258249283E-2,1.028111450E0
8.442629542E0,1.168778986E-1,-9.956175685E-1,5.927005038E-2,1.004205021E0
8.452674542E0,6.266366690E-2,-1.034397125E0,8.474318683E-2,1.039752642E0
8.462720542E0,-2.914542798E-3,-1.056807637E0,1.101154834E-1,1.062532962E0
8.472765542E0,-7.417833805E-2,-1.032118082E0,1.061969027E-1,1.040215335E0
8.482810542E0,-1.442974955E-1,-1.035136819E0,7.431774586E-2,1.047784867E0
8.492856542E0,-2.162174881E-1,-1.050624132E0,2.371476032E-2,1.072904217E0
8.502901542E0,-2.975957096E-1,-1.049664497E0,-3.737207502E-2,1.091675517E0
8.512947542E0,-3.838629425E-1,-1.039187908E0,-1.028885022E-1,1.112586316E0
8.522992542E0,-4.923441708E-1,-1.015399098E0,-1.648357064E-1,1.140442424E0
8.533038542E0,-6.112130284E-1,-1.029772162E0,-2.200100124E-1,1.217545267E0
8.543083542E0,-7.532538176E-1,-1.015562534E0,-2.412703037E-1,1.287233442E0
8.553128542E0,-9.189149737E-1,-9.947046638E-1,-2.279931158E-1,1.373252693E0
8.563174542E0,-1.102219582E0,-9.872331619E-1,-2.164882720E-1,1.495454611E0
8.573219542E0,-1.313745618E0,-1.050339103E0,-1.930194348E-1,1.693043497E0
8.583265542E0,-1.561885357E0,-1.064933896E0,-1.968428791E-1,1.900609689E0
8.593310542E0,-1.843526602E0,-1.061599374E0,-2.351023704E-1,2.140293598E0
8.603355542E0,-1.988464713E0,-7.954633236E-1,-3.738548458E-1,2.174056407E0
8.613401542E0,-3.254366815E-1,-1.030883074E0,-6.316519976E-1,1.252043606E0
8.623446542E0,-1.238779798E-1,-4.087927938E-1,-4.089510739E-1,5.913529259E-1
8.633492542E0,-1.342525929E-1,-9.687560201E-1,-1.067842841E-1,9.838266455E-1
8.643537542E0,-1.727989167E-1,-9.852067232E-1,-6.644997001E-2,1.002450673E0
8.653582542E0,-1.303161681E-1,-6.289654970E-1,-1.675422192E-1,6.638149556E-1
8.663628542E0,-1.885651052E-1,-5.872159004E-1,-1.628017277E-1,6.378743725E-1
8.673673542E0,-1.740404814E-1,-6.447598934E-1,-1.035663784E-1,6.758190616E-1
8.683719542E0,-1.028030589E-1,-5.965740681E-1,-3.502198681E-2,6.063791118E-1
8.693764542E0,-3.279281780E-2,-5.873252153E-1,7.508692332E-3,5.882879039E-1
8.703810542E0,3.719745576E-2,-6.221131086E-1,4.823459685E-2,6.250879514E-1
8.713855542E0,1.067070290E-1,-6.241366267E-1,8.745284379E-2,6.392033469E-1
8.723900542E0,1.598738432E-1,-5.796142817E-1,8.895737678E-2,6.078040606E-1
8.733946167E0,1.903563738E-1,-5.286240578E-1,6.814876944E-2,5.659710225E-1
8.743991167E0,2.227694541E-1,-4.483068883E-1,5.086702481E-2,5.031826210E-1
8.754037167E0,2.803861499E-1,-3.906723559E-1,5.558428168E-2,4.840773648E-1
8.764082167E0,3.361766934E-1,-3.633971512E-1,9.184911847E-2,5.034962952E-1
8.774127167E0,3.911843002E-1,-3.952192664E-1,1.564832330E-1,5.776767500E-1
8.784173167E0,4.539515376E-1,-4.526802003E-1,2.259989381E-1,6.797550164E-1
8.794218167E0,4.912975729E-1,-5.035902262E-1,2.769670486E-1,7.560999716E-1
8.804264167E0,5.052672029E-1,-5.635471940E-1,3.088132441E-1,8.174631526E-1
8.814309167E0,4.983275235E-1,-6.408520937E-1,3.184866309E-1,8.720409742E-1
8.824355167E0,4.930099845E-1,-7.077381611E-1,2.997306883E-1,9.131213693E-1
8.834400167E0,4.681994319E-1,-7.534893751E-1,2.619883716E-1,9.249837043E-1
8.844445167E0,4.260932803E-1,-8.211268783E-1,2.068456113E-1,9.479398402E-1
8.854491167E0,3.753089309E-1,-9.121529460E-1,1.525898278E-1,9.980798796E-1
8.864536167E0,3.171422780E-1,-9.854731560E-1,1.060637981E-1,1.040666178E0
8.874582167E0,2.547897100E-1,-1.052124381E0,7.824601978E-2,1.085359825E0
8.884627167E0,2.088365853E-1,-1.058299184E0,6.604555249E-2,1.080727485E0
8.894672167E0,1.869992018E-1,-1.045753360E0,8.190787584E-2,1.065494107E0
8.904718167E0,1.958771199E-1,-1.058325529E0,1.286543310E-1,1.083961581E0
8.914763167E0,2.153919637E-1,-1.036271095E0,1.694576889E-1,1.071898964E0
8.924809167E0,2.389604002E-1,-1.002830267E0,1.938744038E-1,1.048979457E0
8.934854167E0,2.702096403E-1,-9.631482959E-1,1.963735074E-1,1.019426527E0
8.944899167E0,3.094350994E-1,-9.465581179E-1,1.846298277E-1,1.012823047E0
8.954945167E0,3.564417362E-1,-9.178183675E-1,1.657054126E-1,9.984485719E-1
8.964990167E0,4.070798755E-1,-8.834449649E-1,1.475607008E-1,9.838512039E-1
8.975036167E0,4.623577893E-1,-8.764304519E-1,1.540196687E-1,1.002809613E0
8.985081167E0,5.102960467E-1,-8.846288919E-1,1.656525731E-1,1.034606740E0
8.995127167E0,5.423998833E-1,-8.910364509E-1,1.724089980E-1,1.057292983E0
9.005172167E0,5.478566885E-1,-9.122767448E-1,1.554469913E-1,1.075434599E0
9.015217167E0,5.490641594E-1,-9.122930169E-1,1.016764492E-1,1.069620540E0
9.025263167E0,5.605871677E-1,-9.114851952E-1,3.088006191E-2,1.070521747E0
9.035308167E0,5.765717626E-1,-9.166094065E-1,-3.037184477E-2,1.083296012E0
9.045354167E0,6.006872058E-1,-9.317584634E-1,-8.790454268E-2,1.112081904E0
9.055399167E0,6.379291415E-1,-9.349393845E-1,-1.286410540E-1,1.139128510E0
9.065445167E0,6.706604362E-1,-8.980763555E-1,-1.516813040E-1,1.131076381E0
9.075490167E0,6.927103400E-1,-8.562312126E-1,-1.304945350E-1,1.109057405E0
9.085535167E0,7.046585679E-1,-8.179299831E-1,-7.458224148E-2,1.082180976E0
9.095581167E0,7.089481354E-1,-8.068368435E-1,1.133453101E-2,1.074114343E0
9.105626167E0,6.959457994E-1,-8.091267347E-1,1.278469712E-1,1.074882076E0
9.115672167E0,6.755310893E-1,-8.214952350E-1,1.641996503E-1,1.076177587E0
9.125717167E0,6.199790835E-1,-7.862789631E-1,1.528951079E-1,1.012909466E0
9.135762167E0,5.594478250E-1,-7.896302938E-1,9.989234805E-2,9.728701614E-1
9.145808167E0,4.959937930E-1,-8.095981479E-1,5.411010981E-2,9.509925908E-1
9.155853167E0,4.444275200E-1,-8.338974118E-1,1.063613780E-2,9.449940960E-1
9.165899167E0,4.089140296E-1,-8.105391264E-1,-2.497910894E-2,9.081895809E-1
9.175944167E0,3.865205646E-1,-7.859703898E-1,-3.795669228E-2,8.766916853E-1
9.185990167E0,3.778831363E-1,-7.824106812E-1,-1.955820248E-2,8.691056680E-1
9.196035167E0,3.749246299E-1,-7.702860832E-1,1.068199147E-2,8.567515585E-1
9.206080167E0,3.821428716E-1,-7.195281386E-1,4.074945301E-2,8.157293881E-1
9.216126167E0,3.889869153E-1,-6.650574207E-1,6.618610024E-2,7.732999373E-1
9.226171167E0,3.847218752E-1,-6.181625128E-1,7.718890905E-2,7.321843628E-1
9.236217167E0,3.849724829E-1,-5.782307982E-1,6.582253426E-2,6.977730825E-1
9.246262167E0,3.909166455E-1,-5.521399975E-1,4.124321043E-2,6.777723829E-1
9.256307167E0,4.176132381E-1,-5.369615555E-1,2.267112210E-2,6.806192096E-1
9.266353167E0,4.533070624E-1,-5.408155322E-1,4.753056914E-3,7.056850036E-1
9.276398167E0,4.830875993E-1,-5.267372727E-1,-5.980329588E-4,7.147210230E-1
9.286444167E0,4.780664444E-1,-4.521540105E-1,1.814837940E-2,6.582705661E-1
9.296489167E0,4.496524036E-1,-4.024836421E-1,6.903339922E-2,6.074092331E-1
9.306535167E0,4.034305811E-1,-3.454358876E-1,1.333243400E-1,5.475925180E-1
9.316580167E0,3.715094030E-1,-2.857256830E-1,1.785709113E-1,5.015435901E-1
9.326625167E0,3.564127386E-1,-2.657212317E-1,2.116580755E-1,4.923788725E-1
9.336671167E0,3.319497406E-1,-2.819055021E-1,2.542990148E-1,5.043107488E-1
9.346716167E0,2.868107259E-1,-2.908481658E-1,2.885656357E-1,5.001231590E-1
9.356762167E0,2.184671164E-1,-2.474706024E-1,3.048269153E-1,4.493206297E-1
9.366807167E0,1.384335309E-1,-1.985796988E-1,3.104431629E-1,3.936657169E-1
9.376852167E0,7.117433846E-2,-1.820800900E-1,3.201549053E-1,3.751241249E-1
9.386898167E0,2.273462713E-2,-1.847413033E-1,3.333735466E-1,3.818168854E-1
9.396943167E0,-1.326704957E-2,-1.796701103E-1,3.463943005E-1,3.904438174E-1
9.406989167E0,-4.002436250E-2,-1.616104990E-1,3.496450484E-1,3.872616207E-1
9.417034167E0,-6.105853990E-2,-1.295156777E-1,3.328375816E-1,3.623303904E-1
9.427080167E0,-6.211075559E-2,-1.037446037E-1,3.041106164E-1,3.272674072E-1
9.437125167E0,-4.215861857E-2,-8.478502929E-2,2.991683185E-1,3.137953682E-1
9.447170167E0,-2.022908442E-2,-7.174337655E-2,3.268019557E-1,3.351952359E-1
9.457216167E0,1.345244609E-2,-4.783431068E-2,3.580442965E-1,3.614758745E-1
9.467261167E0,5.510668457E-2,-2.075641602E-2,3.633020818E-1,3.680434460E-1
9.477307167E0,8.129194379E-2,1.062254608E-2,3.375003040E-1,3.473149490E-1
9.487352167E0,9.777238965E-2,3.302576765E-2,3.017943501E-1,3.189513619E-1
9.497397167E0,1.037237570E-1,4.092709720E-2,2.794786692E-1,3.009019301E-1
9.507443167E0,9.181063622E-2,4.463413358E-2,2.686677873E-1,2.874087312E-1
9.517488167E0,7.622395456E-2,4.413878545E-2,2.658706605E-1,2.800812949E-1
9.527534167E0,6.453081220E-2,1.414271258E-2,2.686938047E-1,2.766958669E-1
9.537579167E0,4.623622820E-2,2.103848383E-4,2.491499633E-1,2.534039014E-1
9.547625167E0,2.358124591E-2,9.494786151E-3,1.991622150E-1,2.007780217E-1
9.557670167E0,9.401778691E-3,4.788505286E-2,1.229627803E-1,1.322921656E-1
9.567715167E0,3.530848026E-2,9.635816514E-2,4.954659939E-2,1.139581076E-1
9.577761167E0,9.285912663E-2,1.190895736E-1,8.971744217E-3,1.512799925E-1
9.587806167E0,1.485492736E-1,1.183989570E-1,1.076563075E-2,1.902658627E-1
9.597852167E0,2.000042051E-1,1.245543212E-1,2.906900458E-2,2.374035973E-1
9.607897167E0,2.001576126E-1,8.046938479E-2,8.412696421E-2,2.315507242E-1
9.617942167E0,1.680888981E-1,9.226452559E-2,1.264235526E-1,2.296726692E-1
9.627988167E0,1.339631528E-1,8.478767425E-2,1.259187013E-1,2.024613428E-1
9.638033167E0,9.204019606E-2,5.918910727E-2,1.231013313E-1,1.647078804E-1
9.648079167E0,3.916633502E-2,3.850897774E-2,1.364798099E-1,1.471179176E-1
9.658124167E0,-2.537510917E-2,2.271456830E-2,1.351207942E-1,1.393466067E-1
9.668170167E0,-2.852003649E-2,2.837591805E-2,9.051248431E-2,9.905097184E-2
9.678215167E0,9.707863629E-2,5.264206324E-3,2.807333879E-2,1.011933093E-1
9.688260167E0,2.812841833E-1,-4.260386154E-2,-9.852518328E-3,2.846628759E-1
9.698306167E0,3.849050999E-1,-1.739145070E-2,-3.895287588E-2,3.872618300E-1
9.708351167E0,3.686827123E-1,7.151563466E-2,-9.120937437E-2,3.864719632E-1
9.718397167E0,2.920611501E-1,1.488165408E-1,-1.229345500E-1,3.500842496E-1
9.728442167E0,2.301314920E-1,1.760512441E-1,-1.248784363E-1,3.155141329E-1
9.738487292E0,2.101263553E-1,1.492084414E-1,-8.258397877E-2,2.706221678E-1
9.748533292E0,2.227156460E-1,6.979715824E-2,-8.282839321E-3,2.335433744E-1
9.758578292E0,2.561556101E-1,1.815127581E-2,1.865849644E-2,2.574748626E-1
9.768624292E0,3.182347417E-1,1.803746447E-2,-1.718421467E-2,3.192083930E-1
9.778669292E0,3.717930317E-1,7.889224216E-3,-5.804695934E-2,3.763797919E-1
9.788715292E0,3.656682968E-1,-9.635352530E-3,-8.101080358E-2,3.746583692E-1
9.798760292E0,3.360123932E-1,6.302868482E-3,-1.157855615E-1,3.554579452E-1
9.808805292E0,3.074814081E-1,-4.210521933E-3,-1.277245134E-1,3.329806243E-1
9.818851292E0,2.792681456E-1,-5.505479500E-2,-9.113614261E-2,2.988771053E-1
9.828896292E0,2.439639568E-1,-1.101330742E-1,-3.214487806E-2,2.695941384E-1
9.838942292E0,1.995530874E-1,-1.410094947E-1,2.075855248E-2,2.452264867E-1
9.848987292E0,1.821218878E-1,-1.548262835E-1,3.219915926E-2,2.411977320E-1
9.859033292E0,1.844377667E-1,-1.532701850E-1,3.675822541E-2,2.426112250E-1
9.869078292E0,1.937961280E-1,-1.387598366E-1,1.831462421E-2,2.390536696E-1
9.879123292E0,2.103876173E-1,-1.128667220E-1,-3.825757280E-2,2.417963779E-1
9.889169292E0,2.362413257E-1,-7.130232453E-2,-1.000257581E-1,2.662689200E-1
9.899214292E0,2.393193990E-1,-1.126109064E-2,-1.236290857E-1,2.696010715E-1
9.909260292E0,2.182711065E-1,4.260740802E-2,-8.906903863E-2,2.395641058E-1
9.919305292E0,2.035528868E-1,6.959401816E-2,-2.355208062E-2,2.164065748E-1
9.929350292E0,1.900645047E-1,7.465455681E-2,4.264993966E-2,2.086068939E-1
9.939396292E0,1.764187366E-1,6.057335809E-2,1.010938063E-1,2.121618722E-1
9.949441292E0,1.579015106E-1,5.647324026E-2,1.288568825E-1,2.114857207E-1
9.959487292E0,1.514151096E-1,5.243509263E-2,1.358609945E-1,2.100813751E-1
9.969532292E0,1.824984550E-1,4.714528844E-2,1.235109195E-1,2.253515289E-1
9.979578292E0,2.155882269E-1,5.999583751E-2,9.302145988E-2,2.423443337E-1
9.989623292E0,2.086775899E-1,9.994395822E-2,7.173661888E-2,2.422421801E-1
9.999668292E0,1.876159906E-1,1.123542935E-1,7.512868941E-2,2.312305498E-1
1.000971429E1,1.632813513E-1,1.090153679E-1,1.022019610E-1,2.213377305E-1
1.001975929E1,1.495682001E-1,8.879052103E-2,1.636762470E-1,2.388395213E-1
1.002980529E1,1.549211591E-1,6.773533672E-2,2.039572746E-1,2.649286909E-1
1.003985029E1,1.688921154E-1,4.981572181E-2,1.976604909E-1,2.647183832E-1
1.004989529E1,1.651865840E-1,5.264980346E-2,1.675124615E-1,2.410788960E-1
1.005994129E1,1.615473777E-1,4.401530325E-2,1.287719905E-1,2.112276680E-1
1.006998629E1,1.734493077E-1,3.253136575E-2,1.138364002E-1,2.100039955E-1
1.008003229E1,2.219036520E-1,4.309049807E-3,1.151858270E-1,2.500551407E-1
1.009007729E1,2.727407515E-1,-2.609901316E-2,1.095533520E-1,2.950773000E-1
1.010012329E1,3.116599023E-1,-4.771056026E-2,1.217639446E-1,3.379861691E-1
1.011016829E1,3.131837547E-1,-5.096118897E-2,1.506266445E-1,3.512399365E-1
1.012021329E1,2.974932194E-1,-4.270645604E-2,1.727141142E-1,3.466355755E-1
1.013025929E1,2.963616252E-1,-2.820246667E-2,1.887366176E-1,3.524870250E-1
1.014030429E1,2.877044976E-1,-4.439448565E-2,2.201126516E-1,3.649579807E-1
1.015035029E1,2.662857473E-1,-6.691823155E-2,2.423320562E-1,3.662116524E-1
1.016039529E1,2.459597290E-1,-7.615673542E-2,2.355910689E-1,3.489974045E-1
1.017044029E1,2.365334630E-1,-6.033299863E-2,1.967926025E-1,3.135529911E-1
1.018048629E1,2.337493896E-1,-5.650044233E-2,1.566342562E-1,2.869936713E-1
1.019053129E1,2.159347236E-1,-4.250663146E-2,1.110202670E-1,2.464956760E-1
1.020057729E1,2.104864269E-1,-4.073216394E-2,8.349782974E-2,2.300772320E-1
1.021062229E1,1.907968670E-1,-5.910170078E-2,7.127343863E-2,2.120763036E-1
1.022066829E1,1.336715370E-1,-5.096947402E-2,5.721887201E-2,1.540777934E-1
1.023071329E1,7.174238563E-2,-4.163272679E-2,4.649059847E-2,9.508748383E-2
1.024075829E1,3.161733225E-2,-2.108670585E-2,7.195893675E-2,8.137808944E-2
1.025080429E1,2.913899533E-2,-1.736585423E-2,1.267587543E-1,1.312190372E-1
1.026084929E1,2.720926888E-2,-1.268641464E-2,1.977562308E-1,2.000220394E-1
1.027089529E1,-3.038909985E-3,-5.897812545E-3,2.266409099E-1,2.267380013E-1
1.028094029E1,-1.280365698E-2,1.582213119E-2,1.898272336E-1,1.909153008E-1
1.029098529E1,-6.047484465E-3,1.695304178E-3,1.438324302E-1,1.439694902E-1
1.030103129E1,2.079433762E-5,-1.780915447E-2,9.713602811E-2,9.875512327E-2
1.031107629E1,8.421206847E-3,-2.864905074E-2,6.769551337E-2,7.398896785E-2
1.032112229E1,2.281585895E-2,-3.583079576E-2,5.319593474E-2,6.807508221E-2
1.033116729E1,4.280953109E-2,-1.503399014E-2,5.414304137E-2,7.064096362E-2
1.034121329E1,2.801088057E-2,3.214521334E-3,6.925328076E-2,7.477271878E-2
1.035125829E1,-4.554988816E-2,3.696697950E-2,7.460372895E-2,9.490556495E-2
1.036130329E1,-9.551691264E-2,6.273146719E-2,7.158769667E-2,1.348462676E-1
1.037134929E1,-1.076476052E-1,6.868767738E-2,8.872329444E-2,1.554922085E-1
1.038139429E1,-7.280839235E-2,7.636823505E-2,9.992694855E-2,1.453222776E-1
1.039144029E1,-2.536765300E-2,8.106084913E-2,8.225050569E-2,1.182350403E-1
1.040148529E1,2.878453024E-2,8.743751794E-2,6.127625331E-2,1.105832173E-1
1.041153129E1,9.188946337E-2,9.935007989E-2,3.440505639E-2,1.396345937E-1
1.042157629E1,1.727393121E-1,1.177242920E-1,4.014393780E-3,2.090789186E-1
1.043162129E1,2.360796630E-1,1.495397836E-1,-2.652321011E-2,2.807120141E-1
1.044166729E1,2.420960218E-1,1.909969449E-1,-5.763186142E-2,3.137064682E-1
1.045171229E1,2.458446771E-1,1.877981424E-1,-6.272032857E-2,3.156605569E-1
1.046175829E1,1.775473803E-1,6.356381625E-2,-3.154642880E-2,1.912030548E-1
1.047180329E1,1.146664172E-1,2.359569073E-2,1.605587266E-2,1.181648633E-1
1.048184829E1,7.348782569E-2,1.828321628E-2,4.140676558E-2,8.630907692E-2
1.049189429E1,3.389380500E-2,-6.097134668E-3,1.321087219E-2,3.688485072E-2
1.050193929E1,1.410066150E-2,4.249778576E-3,-5.933017284E-2,6.113066891E-2
1.051198529E1,4.930551723E-2,7.238409016E-3,-9.309712797E-2,1.055959461E-1
1.052203029E1,1.107510403E-1,4.216603190E-2,-8.666692674E-2,1.468159506E-1
1.053207629E1,1.558282375E-1,7.724956423E-2,-5.755016953E-2,1.831992271E-1
1.054212129E1,1.521043330E-1,8.624492586E-2,-1.546183601E-2,1.755362747E-1
1.055216629E1,7.829988748E-2,5.183996260E-2,3.135968000E-2,9.900345262E-2