"Time (s)","Acceleration x (m/s^2)","Acceleration y (m/s^2)","Acceleration z (m/s^2)","Absolute acceleration (m/s^2)"
1.531375001E-3,-1.050964508E0,-3.978726196E-1,8.893605652E0,8.964320973E0
1.156937500E-2,-1.032552795E0,-3.335064697E-1,9.868228912E0,9.927705360E0
2.160837500E-2,1.700463867E-1,-4.933740234E-1,9.818532257E0,9.832390827E0
3.164637500E-2,-6.646179199E-2,-4.279600525E-1,1.008812164E1,1.009741379E1
4.168537500E-2,-4.439767456E-1,-4.372407532E-1,9.658664703E0,9.678744685E0
5.172437500E-2,-1.375639343E-1,-4.117936707E-1,9.945019226E0,9.954491713E0
6.176237500E-2,-1.721420288E-1,-3.848497009E-1,9.896669769E0,9.905645597E0
7.180137500E-2,-2.502795410E-1,-3.617976379E-1,9.933792572E0,9.943529164E0
8.183937500E-2,-3.206332397E-1,-3.489244080E-1,9.959539032E0,9.970805968E0
9.187837500E-2,-3.552113342E-1,-3.153941345E-1,9.916578369E0,9.927949189E0
1.019163750E-1,-3.444337463E-1,-3.417393494E-1,9.982591095E0,9.994375686E0
1.119553750E-1,-2.836601257E-1,-3.156935120E-1,9.926906891E0,9.935975336E0
1.219943750E-1,-2.507286072E-1,-3.598516846E-1,9.950258331E0,9.959919625E0
1.320323750E-1,-2.516267395E-1,-3.606001282E-1,9.901010742E0,9.910770010E0
1.420713750E-1,-2.433938599E-1,-3.924838257E-1,9.886940002E0,9.897720280E0
1.521093750E-1,-2.642005920E-1,-4.108955383E-1,9.866282959E0,9.878369123E0
1.621483750E-1,-2.565664673E-1,-4.186793518E-1,9.828112335E0,9.840371478E0
1.721863750E-1,-3.463796997E-1,-4.519102478E-1,9.848619690E0,9.865065208E0
1.822253750E-1,-3.008743286E-1,-4.122427368E-1,9.776918793E0,9.790230361E0
1.922633750E-1,-1.291813660E-1,-4.228706360E-1,9.927954712E0,9.937796142E0
2.023023750E-1,-3.436853027E-1,-4.108955383E-1,9.829309845E0,9.843895914E0
2.123413750E-1,-2.908451843E-1,-3.962260437E-1,9.885592804E0,9.897804357E0
2.223793750E-1,-2.549198914E-1,-3.739224243E-1,9.913285217E0,9.923609521E0
2.324183750E-1,-2.779719543E-1,-3.537144470E-1,9.898915100E0,9.909132277E0
2.424563750E-1,-2.854563904E-1,-3.644920349E-1,9.917177124E0,9.927977735E0
2.524953750E-1,-2.179467773E-1,-3.460803223E-1,9.954299927E0,9.962698400E0
2.625333750E-1,-2.559677124E-1,-3.514691162E-1,9.927805023E0,9.937321701E0
2.725723750E-1,-1.838177490E-1,-3.600013733E-1,9.940977631E0,9.949192239E0
2.826103750E-1,-2.168989563E-1,-3.496728516E-1,9.950857086E0,9.959361074E0
2.926493750E-1,-2.688409424E-1,-3.653901672E-1,9.872120819E0,9.882537877E0
3.026883750E-1,-2.160008240E-1,-3.787124634E-1,9.907447357E0,9.917035475E0
3.127263750E-1,-2.221380615E-1,-3.894900513E-1,9.890382843E0,9.900541430E0
3.227653750E-1,-2.652484131E-1,-3.936813354E-1,9.874066772E0,9.885470972E0
3.328033750E-1,-2.823129272E-1,-3.933819580E-1,9.871821442E0,9.883689014E0
3.428423750E-1,-2.974314880E-1,-4.016148376E-1,9.874366150E0,9.887004947E0
3.528803750E-1,-3.119512939E-1,-3.986210632E-1,9.877509613E0,9.890470591E0
3.629193750E-1,-3.080593872E-1,-3.849993896E-1,9.881401520E0,9.893696029E0
3.729573750E-1,-3.125500488E-1,-3.866459656E-1,9.894574127E0,9.907057070E0
3.829963750E-1,-3.251239014E-1,-3.760180664E-1,9.908944244E0,9.921404698E0
3.930353750E-1,-2.854563904E-1,-3.649411011E-1,9.911788330E0,9.922611312E0
4.030732083E-1,-2.761756897E-1,-3.686833191E-1,9.908495178E0,9.919197402E0
4.131122083E-1,-2.418969727E-1,-3.737727356E-1,9.899813232E0,9.909819486E0
4.231502083E-1,-2.215393066E-1,-3.736230469E-1,9.908046112E0,9.917562785E0
4.331892083E-1,-2.387535095E-1,-3.829037476E-1,9.885742493E0,9.896035729E0
4.432272083E-1,-2.154020691E-1,-3.794609070E-1,9.893975372E0,9.903592141E0
4.532662083E-1,-2.392025757E-1,-3.836521912E-1,9.906848602E0,9.917159679E0
4.633042083E-1,-2.335144043E-1,-3.766168213E-1,9.903405762E0,9.913315030E0
4.733432083E-1,-2.592608643E-1,-3.881428528E-1,9.889933777E0,9.900942439E0
4.833822083E-1,-2.737806702E-1,-3.848497009E-1,9.890382843E0,9.901653293E0
4.934202083E-1,-2.859054565E-1,-3.697311401E-1,9.899364166E0,9.910391210E0
5.034592083E-1,-3.112028503E-1,-3.820056152E-1,9.895921326E0,9.908180175E0
5.134972083E-1,-3.046165466E-1,-3.849993896E-1,9.905202026E0,9.917360685E0
5.235362083E-1,-3.020718384E-1,-3.781137085E-1,9.893825684E0,9.905655154E0
5.335742083E-1,-2.963836670E-1,-3.882925415E-1,9.895472260E0,9.907521669E0
5.436132083E-1,-2.842588806E-1,-3.778143311E-1,9.889933777E0,9.901229060E0
5.536512083E-1,-2.721340942E-1,-3.959266663E-1,9.883946228E0,9.895615591E0
5.636902083E-1,-2.525248718E-1,-3.894900513E-1,9.888885956E0,9.899774581E0
5.737292083E-1,-2.360591125E-1,-3.858975220E-1,9.891879730E0,9.902218206E0
5.837672083E-1,-2.282752991E-1,-3.902384949E-1,9.909243622E0,9.919551646E0
5.938062083E-1,-2.306703186E-1,-3.918850708E-1,9.899064789E0,9.909503842E0
6.038442083E-1,-2.363584900E-1,-3.722758484E-1,9.908195801E0,9.918003764E0
6.138832083E-1,-2.589614868E-1,-3.668870544E-1,9.921518097E0,9.931676017E0
6.239212083E-1,-2.640509033E-1,-3.661386108E-1,9.920619965E0,9.930885199E0
6.339602083E-1,-2.740800476E-1,-3.513194275E-1,9.924362183E0,9.934360067E0
6.439982083E-1,-2.869532776E-1,-3.580554199E-1,9.904752960E0,9.915375791E0
6.540372083E-1,-2.878514099E-1,-3.707789612E-1,9.905202026E0,9.916317999E0
6.640762083E-1,-3.074606323E-1,-3.818559265E-1,9.891879730E0,9.904020930E0
6.741142083E-1,-3.008743286E-1,-3.917353821E-1,9.882599030E0,9.894935348E0
6.841532083E-1,-2.812651062E-1,-3.945794678E-1,9.881102142E0,9.892976426E0
6.941912083E-1,-2.761756897E-1,-4.014651489E-1,9.878108368E0,9.890119929E0
7.042302083E-1,-2.649490356E-1,-4.222718811E-1,9.864636383E0,9.877224433E0
7.142682083E-1,-2.541714478E-1,-4.101470947E-1,9.865833893E0,9.877626343E0
7.243072083E-1,-2.519261169E-1,-4.099974060E-1,9.879754944E0,9.891467151E0
7.343452083E-1,-2.582130432E-1,-3.805087280E-1,9.885143738E0,9.895833850E0
7.443842083E-1,-2.457888794E-1,-3.815565491E-1,9.899513855E0,9.909912822E0
7.544222083E-1,-2.606080627E-1,-3.746708679E-1,9.913734283E0,9.924234090E0
7.644612083E-1,-2.574645996E-1,-3.653901672E-1,9.926757202E0,9.936815715E0
7.745002083E-1,-2.628533936E-1,-3.546125793E-1,9.937684479E0,9.947482837E0
7.845382083E-1,-2.902464294E-1,-3.448828125E-1,9.931247864E0,9.941472289E0
7.945772083E-1,-2.978805542E-1,-3.531156921E-1,9.937534790E0,9.948267247E0
8.046152083E-1,-2.893482971E-1,-3.629951477E-1,9.917027435E0,9.927886032E0
8.146542083E-1,-2.857557678E-1,-3.685336304E-1,9.914333038E0,9.925294605E0
8.246922083E-1,-2.782713318E-1,-3.665876770E-1,9.890831909E0,9.901534089E0
8.347312083E-1,-2.751278687E-1,-4.105961609E-1,9.871671753E0,9.884037017E0
8.447692083E-1,-2.734812927E-1,-3.971241760E-1,9.885592804E0,9.897345337E0
8.548082083E-1,-2.562670898E-1,-4.076023865E-1,9.859846344E0,9.871594727E0
8.648472083E-1,-2.749781799E-1,-4.126918030E-1,9.858499146E0,9.870964134E0
8.748852083E-1,-2.661465454E-1,-4.061054993E-1,9.877359924E0,9.889286867E0
8.849242083E-1,-2.682421875E-1,-3.950285339E-1,9.880503387E0,9.892034604E0
8.949622083E-1,-2.622546387E-1,-3.812571716E-1,9.896370392E0,9.907183326E0
9.050012083E-1,-2.803669739E-1,-3.703298950E-1,9.915380859E0,9.926254453E0
9.150392083E-1,-2.748284912E-1,-3.541635132E-1,9.932295685E0,9.942407156E0
9.250782083E-1,-2.800675964E-1,-3.617976379E-1,9.927505646E0,9.938043255E0
9.351162083E-1,-2.826123047E-1,-3.685336304E-1,9.938582611E0,9.949427675E0
9.451552083E-1,-2.850073242E-1,-3.559597778E-1,9.924362183E0,9.934832725E0
9.551942083E-1,-2.770738220E-1,-3.583547974E-1,9.919272766E0,9.929610278E0
9.652322083E-1,-2.743794250E-1,-3.757186890E-1,9.915979614E0,9.926887746E0
9.752712083E-1,-2.630030823E-1,-3.772155762E-1,9.901010742E0,9.911683809E0
9.853092083E-1,-2.594105530E-1,-3.912863159E-1,9.890083466E0,9.901219610E0
9.953482083E-1,-2.597099304E-1,-4.008663940E-1,9.878258057E0,9.889799055E0
1.005386208E0,-2.604583740E-1,-4.056564331E-1,9.870923309E0,9.882688029E0
1.015425208E0,-2.647993469E-1,-4.131408691E-1,9.873018951E0,9.885206487E0
1.025463208E0,-2.662962341E-1,-3.915856934E-1,9.881251831E0,9.892592723E0
1.035502208E0,-2.679428101E-1,-3.924838257E-1,9.874665527E0,9.886094081E0
1.045541208E0,-2.811154175E-1,-3.902384949E-1,9.897567902E0,9.909246305E0
1.055579208E0,-2.950364685E-1,-3.667373657E-1,9.912836151E0,9.924004402E0
1.065618208E0,-2.851570129E-1,-3.721261597E-1,9.922715607E0,9.933784647E0
1.075656208E0,-2.887495422E-1,-3.543132019E-1,9.927206268E0,9.937723001E0
1.085695208E0,-2.760260010E-1,-3.652404785E-1,9.933193817E0,9.943738249E0
1.095733208E0,-2.839595032E-1,-3.582051086E-1,9.925559692E0,9.936079665E0
1.105772208E0,-2.793191528E-1,-3.697311401E-1,9.910740509E0,9.921567303E0
1.115810208E0,-2.615061951E-1,-3.731739807E-1,9.896969147E0,9.907453891E0
1.125849208E0,-2.522254944E-1,-3.829037476E-1,9.905800781E0,9.916406713E0
1.135888208E0,-2.582130432E-1,-3.799099731E-1,9.896071014E0,9.906726356E0
1.145926208E0,-2.631527710E-1,-3.884422302E-1,9.886191559E0,9.897318843E0
1.155965208E0,-2.646496582E-1,-3.954776001E-1,9.883497162E0,9.894946090E0
1.166003208E0,-2.556683350E-1,-3.842509460E-1,9.885293427E0,9.896061904E0
1.176042208E0,-2.942880249E-1,-3.932322693E-1,9.886940002E0,9.899132269E0
1.186080208E0,-2.845582581E-1,-3.921844482E-1,9.898915100E0,9.910766984E0
1.196119208E0,-2.906954956E-1,-3.823049927E-1,9.892029419E0,9.903681487E0
1.206157208E0,-2.805166626E-1,-3.826043701E-1,9.898765411E0,9.910127768E0
1.216196208E0,-2.881507874E-1,-3.791615295E-1,9.913434906E0,9.924867051E0
1.226235208E0,-2.749781799E-1,-3.718267822E-1,9.899214478E0,9.910010869E0
1.236273208E0,-2.884501648E-1,-3.755690002E-1,9.901759186E0,9.913076745E0
1.246312208E0,-2.643502808E-1,-3.776646423E-1,9.919871521E0,9.930577156E0
1.256350208E0,-2.680924988E-1,-3.715274048E-1,9.904453583E0,9.915044477E0
1.266389208E0,-2.580633545E-1,-3.888912964E-1,9.896819458E0,9.907818555E0
1.276427208E0,-2.498304749E-1,-3.815565491E-1,9.901310120E0,9.911808248E0
1.286466208E0,-2.408491516E-1,-3.692820740E-1,9.888436890E0,9.898260538E0
1.296504208E0,-2.478845215E-1,-3.811074829E-1,9.888586578E0,9.899031981E0
1.306543208E0,-2.528242493E-1,-3.864962769E-1,9.885592804E0,9.896375324E0
1.316581208E0,-2.715353394E-1,-3.879931641E-1,9.887389069E0,9.898723793E0
1.326620208E0,-2.668949890E-1,-3.695814514E-1,9.888885956E0,9.899388306E0
1.336659208E0,-2.883004761E-1,-3.755690002E-1,9.897567902E0,9.908885891E0
1.346697208E0,-2.878514099E-1,-3.727249146E-1,9.894274750E0,9.905476017E0
1.356736208E0,-2.936892700E-1,-3.820056152E-1,9.904154205E0,9.915868706E0
1.366774208E0,-2.875520325E-1,-3.835025024E-1,9.900561676E0,9.912158284E0
1.376813208E0,-2.863545227E-1,-3.797602844E-1,9.912387085E0,9.923791337E0
1.386851208E0,-2.782713318E-1,-3.716770935E-1,9.893077240E0,9.903966684E0
1.396890083E0,-2.668949890E-1,-3.760180664E-1,9.889784088E0,9.900527856E0
1.406928083E0,-2.615061951E-1,-3.902384949E-1,9.886341248E0,9.897495382E0
1.416967083E0,-2.627037048E-1,-3.809577942E-1,9.877958679E0,9.888792128E0
1.427006083E0,-2.543211365E-1,-3.811074829E-1,9.896669769E0,9.907269789E0
1.437044083E0,-2.505789185E-1,-3.793112183E-1,9.902956696E0,9.913385804E0
1.447083083E0,-2.659968567E-1,-3.794609070E-1,9.895172882E0,9.906017932E0
1.457121083E0,-2.607577515E-1,-3.788621521E-1,9.894873505E0,9.905556663E0
1.467160083E0,-2.579136658E-1,-3.745211792E-1,9.896071014E0,9.906513367E0
1.477198083E0,-2.665956116E-1,-3.781137085E-1,9.909842377E0,9.920636024E0
1.487237083E0,-2.912942505E-1,-3.864962769E-1,9.908644867E0,9.920457389E0
1.497275083E0,-2.797682190E-1,-3.754193115E-1,9.910590820E0,9.921644033E0
1.507314083E0,-2.874023438E-1,-3.872447205E-1,9.900112610E0,9.911850900E0
1.517352083E0,-2.890489197E-1,-3.820056152E-1,9.906249847E0,9.917825548E0
1.527391083E0,-2.721340942E-1,-3.749702454E-1,9.904752960E0,9.915583233E0
1.537430083E0,-2.526745605E-1,-3.794609070E-1,9.890532532E0,9.901033723E0
1.547468083E0,-2.622546387E-1,-3.941304016E-1,9.895472260E0,9.906789970E0
1.557507083E0,-2.692900085E-1,-3.779640198E-1,9.898915100E0,9.909787791E0
1.567545083E0,-2.601589966E-1,-3.852987671E-1,9.896969147E0,9.907882525E0
1.577584083E0,-2.520758057E-1,-3.869453430E-1,9.886191559E0,9.896971883E0
1.587622083E0,-2.495310974E-1,-3.852987671E-1,9.893975372E0,9.904618598E0
1.597661083E0,-2.562670898E-1,-3.787124634E-1,9.903705139E0,9.914255970E0
1.607699083E0,-2.564167786E-1,-3.752696228E-1,9.903106384E0,9.913530799E0
1.617738083E0,-2.656974792E-1,-3.733236694E-1,9.903106384E0,9.913701719E0
1.627777083E0,-2.671943665E-1,-3.671864319E-1,9.906100159E0,9.916503369E0
1.637815083E0,-2.688409424E-1,-3.721261597E-1,9.911039886E0,9.921666441E0
1.647854083E0,-2.773731995E-1,-3.685336304E-1,9.912087708E0,9.922813898E0
1.657892083E0,-2.859054565E-1,-3.844006348E-1,9.901759186E0,9.913341553E0
1.667931083E0,-2.803669739E-1,-3.918850708E-1,9.894873505E0,9.906598873E0
1.677969083E0,-2.748284912E-1,-3.888912964E-1,9.882748718E0,9.894214945E0
1.688008083E0,-2.565664673E-1,-3.891906738E-1,9.897118835E0,9.908090481E0
1.698046083E0,-2.677931213E-1,-3.932322693E-1,9.886490936E0,9.897931491E0
1.708085083E0,-2.574645996E-1,-3.996688843E-1,9.892927551E0,9.904344439E0
1.718123083E0,-2.673440552E-1,-3.869453430E-1,9.883946228E0,9.895129740E0
1.728162083E0,-2.555186462E-1,-3.778143311E-1,9.888137512E0,9.898651267E0
1.738201083E0,-2.598596191E-1,-3.948788452E-1,9.898316345E0,9.909597509E0
1.748239083E0,-2.523751831E-1,-3.745211792E-1,9.914782104E0,9.925062394E0
1.758278083E0,-2.733316040E-1,-3.718267822E-1,9.900561676E0,9.911311055E0
1.768316083E0,-2.713856506E-1,-3.664379883E-1,9.926457825E0,9.936925677E0
1.778355083E0,-2.785707092E-1,-3.677851868E-1,9.914333038E0,9.925062578E0
1.788393083E0,-2.697390747E-1,-3.698808289E-1,9.909992065E0,9.920560152E0
1.798432083E0,-2.758763123E-1,-3.745211792E-1,9.898466034E0,9.909389672E0
1.808470083E0,-2.856060791E-1,-3.767665100E-1,9.893526306E0,9.904816334E0
1.818509083E0,-2.775228882E-1,-3.808081055E-1,9.900112610E0,9.911319965E0
1.828548083E0,-2.603086853E-1,-3.897894287E-1,9.887987823E0,9.899090848E0
1.838586083E0,-2.615061951E-1,-3.884422302E-1,9.874515839E0,9.885612571E0
1.848625083E0,-2.637515259E-1,-3.849993896E-1,9.890233154E0,9.901237359E0
1.858663083E0,-2.746788025E-1,-3.827540588E-1,9.897118835E0,9.908325305E0
1.868702083E0,-2.595602417E-1,-3.924838257E-1,9.891580353E0,9.902766126E0
1.878740083E0,-2.531236267E-1,-3.929328918E-1,9.890233154E0,9.901271619E0
1.888779083E0,-2.616558838E-1,-3.835025024E-1,9.910740509E0,9.921608509E0
1.898817083E0,-2.685415649E-1,-3.670367432E-1,9.917326813E0,9.927749073E0
1.908856083E0,-2.673440552E-1,-3.773652649E-1,9.911488953E0,9.922272454E0
1.918894083E0,-2.719844055E-1,-3.784130859E-1,9.904303894E0,9.915261348E0
1.928933083E0,-2.713856506E-1,-3.721261597E-1,9.915081482E0,9.925772959E0
1.938972083E0,-2.647993469E-1,-3.682342529E-1,9.909542999E0,9.919917218E0
1.949010083E0,-2.674937439E-1,-3.739224243E-1,9.888436890E0,9.899118900E0
1.959049083E0,-2.642005920E-1,-3.802093506E-1,9.889933777E0,9.900765183E0
1.969087083E0,-2.698887634E-1,-3.839515686E-1,9.898466034E0,9.909585691E0
1.979126083E0,-2.535726929E-1,-3.921844482E-1,9.895322571E0,9.906337191E0
1.989164083E0,-2.594105530E-1,-3.884422302E-1,9.886191559E0,9.897220051E0
1.999203083E0,-2.553689575E-1,-4.001179504E-1,9.894723816E0,9.906102517E0
2.009241083E0,-2.718347168E-1,-3.921844482E-1,9.901459808E0,9.912951583E0
2.019280083E0,-2.686912537E-1,-3.833528137E-1,9.901759186E0,9.912819445E0
2.029319083E0,-2.695893860E-1,-3.866459656E-1,9.897268524E0,9.908486150E0
2.039357083E0,-2.676434326E-1,-3.821553040E-1,9.895472260E0,9.906464905E0
2.049396083E0,-2.773731995E-1,-3.890409851E-1,9.900711365E0,9.912233568E0
2.059434083E0,-2.859054565E-1,-3.796105957E-1,9.915829926E0,9.927211554E0
2.069473083E0,-2.748284912E-1,-3.773652649E-1,9.903705139E0,9.914701747E0
2.079511083E0,-2.647993469E-1,-3.713777161E-1,9.911638641E0,9.922127829E0
2.089550083E0,-2.689906311E-1,-3.763174438E-1,9.917626190E0,9.928407729E0
2.099588083E0,-2.658471680E-1,-3.824546814E-1,9.902807007E0,9.913754733E0
2.109627083E0,-2.612068176E-1,-3.733236694E-1,9.906100159E0,9.916572993E0
2.119665083E0,-2.559677124E-1,-3.824546814E-1,9.886790314E0,9.897495328E0
2.129704083E0,-2.624043274E-1,-3.832031250E-1,9.884544983E0,9.895449974E0
2.139743083E0,-2.577639771E-1,-3.838018799E-1,9.902657318E0,9.913443807E0
2.149781083E0,-2.713856506E-1,-3.953279114E-1,9.892478485E0,9.904093341E0
2.159820083E0,-2.677931213E-1,-3.821553040E-1,9.885293427E0,9.896301428E0
2.169858083E0,-2.730322266E-1,-3.785627747E-1,9.899513855E0,9.910511134E0
2.179897083E0,-2.695893860E-1,-3.832031250E-1,9.899813232E0,9.910894264E0
2.189935083E0,-2.739303589E-1,-3.805087280E-1,9.909393311E0,9.920478845E0
2.199974083E0,-2.877017212E-1,-3.751199341E-1,9.890682220E0,9.901973643E0
2.210012083E0,-2.722837830E-1,-3.781137085E-1,9.905950470E0,9.916902901E0
2.220051083E0,-2.710862732E-1,-3.814068604E-1,9.902058563E0,9.913108632E0
2.230090083E0,-2.730322266E-1,-3.727249146E-1,9.912686462E0,9.923448159E0
2.240128083E0,-2.742297363E-1,-3.824546814E-1,9.904752960E0,9.915926822E0
2.250167083E0,-2.478845215E-1,-3.787124634E-1,9.905651093E0,9.915986760E0
2.260205083E0,-2.644999695E-1,-3.749702454E-1,9.898016968E0,9.908647880E0
2.270244083E0,-2.630030823E-1,-3.739224243E-1,9.886191559E0,9.896755637E0
2.280282083E0,-2.553689575E-1,-3.914360046E-1,9.890831909E0,9.901868072E0
2.290321083E0,-2.676434326E-1,-3.939807129E-1,9.903555450E0,9.915001985E0
2.300359083E0,-2.618055725E-1,-3.779640198E-1,9.891580353E0,9.902260390E0
2.310398083E0,-2.698887634E-1,-3.820056152E-1,9.900861053E0,9.911902836E0
2.320436083E0,-2.680924988E-1,-3.947291565E-1,9.906249847E0,9.917735162E0
2.330475083E0,-2.715353394E-1,-3.770658875E-1,9.899962921E0,9.910861515E0
2.340514083E0,-2.799179077E-1,-3.647914124E-1,9.908495178E0,9.919158407E0
2.350552083E0,-2.730322266E-1,-3.733236694E-1,9.902507629E0,9.913302906E0
2.360591083E0,-2.656974792E-1,-3.802093506E-1,9.895771637E0,9.906636694E0
2.370629083E0,-2.695893860E-1,-3.848497009E-1,9.890532532E0,9.901687810E0
2.380668083E0,-2.665956116E-1,-3.815565491E-1,9.899513855E0,9.910450705E0
2.390706083E0,-2.755769348E-1,-3.839515686E-1,9.902657318E0,9.913928758E0
2.400745833E0,-2.685415649E-1,-3.899391174E-1,9.907597046E0,9.918903483E0
2.410783833E0,-2.724334717E-1,-3.746708679E-1,9.894873505E0,9.905711480E0
2.420822833E0,-2.618055725E-1,-3.884422302E-1,9.885892181E0,9.896984073E0
2.430860833E0,-2.630030823E-1,-3.829037476E-1,9.889185333E0,9.900089518E0
2.440899833E0,-2.625540161E-1,-3.770658875E-1,9.903106384E0,9.913759597E0
2.450938833E0,-2.745291138E-1,-3.887416077E-1,9.890682220E0,9.902125078E0
2.460976833E0,-2.691403198E-1,-3.832031250E-1,9.903256073E0,9.914321056E0
2.471015833E0,-2.808160400E-1,-3.808081055E-1,9.904902649E0,9.916197303E0
2.481053833E0,-2.766247559E-1,-3.869453430E-1,9.899064789E0,9.910485944E0
2.491092833E0,-2.643502808E-1,-3.718267822E-1,9.906100159E0,9.916600051E0
2.501130833E0,-2.730322266E-1,-3.797602844E-1,9.899064789E0,9.910108383E0
2.511169833E0,-2.700384521E-1,-3.790118408E-1,9.899513855E0,9.910446272E0
2.521207833E0,-2.668949890E-1,-3.849993896E-1,9.907746735E0,9.918815596E0
2.531246833E0,-2.791694641E-1,-3.766168213E-1,9.886041870E0,9.897151089E0
2.541285833E0,-2.507286072E-1,-3.823049927E-1,9.892029419E0,9.902588953E0
2.551323833E0,-2.525248718E-1,-3.830534363E-1,9.906848602E0,9.917466812E0
2.561362833E0,-2.812651062E-1,-3.835025024E-1,9.893975372E0,9.905399179E0
2.571400833E0,-2.683918762E-1,-3.835025024E-1,9.893376617E0,9.904443915E0
2.581439833E0,-2.649490356E-1,-3.921844482E-1,9.896071014E0,9.907382508E0
2.591477833E0,-2.742297363E-1,-3.625460815E-1,9.905651093E0,9.916076098E0
2.601516833E0,-2.733316040E-1,-3.800596619E-1,9.895771637E0,9.906838638E0
2.611554833E0,-2.677931213E-1,-3.838018799E-1,9.902657318E0,9.913709649E0
2.621593833E0,-2.772235107E-1,-3.758683777E-1,9.908495178E0,9.919496288E0
2.631631833E0,-2.782713318E-1,-3.778143311E-1,9.909692688E0,9.920795723E0
2.641670833E0,-2.748284912E-1,-3.808081055E-1,9.902507629E0,9.913637217E0
2.651709833E0,-2.710862732E-1,-3.829037476E-1,9.899663544E0,9.910774002E0
2.661747833E0,-2.719844055E-1,-3.799099731E-1,9.897867279E0,9.908889129E0
2.671786833E0,-2.740800476E-1,-3.899391174E-1,9.893675995E0,9.905150028E0
2.681824833E0,-2.619552612E-1,-3.944297791E-1,9.887838135E0,9.899168571E0
2.691863833E0,-2.697390747E-1,-3.803590393E-1,9.904752960E0,9.915723038E0
2.701901833E0,-2.535726929E-1,-3.903881836E-1,9.892628174E0,9.903574821E0
2.711940833E0,-2.625540161E-1,-3.818559265E-1,9.908495178E0,9.919325847E0
2.721978833E0,-2.700384521E-1,-3.838018799E-1,9.896819458E0,9.907939242E0
2.732017833E0,-2.583627319E-1,-3.826043701E-1,9.908794556E0,9.919543687E0
2.742055833E0,-2.799179077E-1,-3.743714905E-1,9.908495178E0,9.919515348E0
2.752094833E0,-2.600093079E-1,-3.643423462E-1,9.905950470E0,9.916057931E0
2.762133833E0,-2.808160400E-1,-3.676354980E-1,9.901759186E0,9.912560138E0
2.772171833E0,-2.698887634E-1,-3.811074829E-1,9.897867279E0,9.908877814E0
2.782210833E0,-2.682421875E-1,-3.613485718E-1,9.902956696E0,9.913176987E0
2.792248833E0,-2.757266235E-1,-3.785627747E-1,9.891879730E0,9.902960140E0
2.802287833E0,-2.662962341E-1,-3.918850708E-1,9.910441132E0,9.921760480E0
2.812325833E0,-2.724334717E-1,-3.823049927E-1,9.891580353E0,9.902713718E0
2.822364833E0,-2.659968567E-1,-3.841012573E-1,9.891430664E0,9.902458719E0
2.832402833E0,-2.642005920E-1,-3.727249146E-1,9.895023193E0,9.905564588E0
2.842441833E0,-2.692900085E-1,-3.839515686E-1,9.899813232E0,9.910915092E0
2.852479833E0,-2.664459229E-1,-3.733236694E-1,9.906249847E0,9.916861904E0
2.862518833E0,-2.685415649E-1,-3.707789612E-1,9.891580353E0,9.902169130E0
2.872557833E0,-2.746788025E-1,-3.794609070E-1,9.902807007E0,9.913880453E0
2.882595833E0,-2.841091919E-1,-3.872447205E-1,9.900262299E0,9.911905472E0
2.892634833E0,-2.700384521E-1,-3.752696228E-1,9.906698914E0,9.917481103E0
2.902672833E0,-2.634521484E-1,-3.764671326E-1,9.906698914E0,9.917349338E0
2.912711833E0,-2.767744446E-1,-3.845503235E-1,9.911339264E0,9.922657358E0
2.922749833E0,-2.628533936E-1,-3.873944092E-1,9.895472260E0,9.906540141E0
2.932788833E0,-2.609074402E-1,-3.863465881E-1,9.897717590E0,9.908690624E0
2.942826833E0,-2.665956116E-1,-3.769161987E-1,9.911039886E0,9.921786667E0
2.952865833E0,-2.624043274E-1,-3.842509460E-1,9.883347473E0,9.894294421E0
2.962904833E0,-2.550695801E-1,-3.820056152E-1,9.888436890E0,9.899099601E0
2.972942833E0,-2.692900085E-1,-3.827540588E-1,9.893675995E0,9.904738385E0
2.982981833E0,-2.631527710E-1,-3.917353821E-1,9.898466034E0,9.909709169E0
2.993019833E0,-2.695893860E-1,-3.854484558E-1,9.890981598E0,9.902159659E0
3.003058833E0,-2.670446777E-1,-3.887416077E-1,9.896370392E0,9.907602123E0
3.013096833E0,-2.854563904E-1,-3.760180664E-1,9.888137512E0,9.899400911E0
3.023135833E0,-2.691403198E-1,-3.905378723E-1,9.903405762E0,9.914756781E0
3.033173833E0,-2.832110596E-1,-3.733236694E-1,9.915829926E0,9.926895898E0
3.043212833E0,-2.721340942E-1,-3.716770935E-1,9.908644867E0,9.919346951E0
3.053250833E0,-2.670446777E-1,-3.673361206E-1,9.906249847E0,9.916654412E0
3.063289833E0,-2.746788025E-1,-3.805087280E-1,9.911189575E0,9.922293794E0
3.073328833E0,-2.616558838E-1,-3.832031250E-1,9.905950470E0,9.916812147E0
3.083366833E0,-2.543211365E-1,-3.848497009E-1,9.908794556E0,9.919526102E0
3.093405833E0,-2.652484131E-1,-3.882925415E-1,9.893675995E0,9.904844901E0
3.103443833E0,-2.682421875E-1,-3.941304016E-1,9.899064789E0,9.910538650E0
3.113482833E0,-2.630030823E-1,-3.905378723E-1,9.885143738E0,9.896350700E0
3.123520833E0,-2.612068176E-1,-3.879931641E-1,9.898316345E0,9.909360936E0
3.133559833E0,-2.579136658E-1,-3.724255371E-1,9.906998291E0,9.917350220E0
3.143597833E0,-2.652484131E-1,-3.872447205E-1,9.909842377E0,9.920952128E0
3.153636833E0,-2.713856506E-1,-3.900888062E-1,9.904902649E0,9.916295474E0
3.163675833E0,-2.742297363E-1,-3.844006348E-1,9.899364166E0,9.910619390E0
3.173713833E0,-2.730322266E-1,-3.820056152E-1,9.899813232E0,9.910942282E0
3.183752833E0,-2.791694641E-1,-3.760180664E-1,9.902357941E0,9.913426146E0
3.193790833E0,-2.650987244E-1,-3.746708679E-1,9.906399536E0,9.917026135E0
3.203829833E0,-2.703378296E-1,-3.766168213E-1,9.902956696E0,9.913802201E0
3.213867833E0,-2.679428101E-1,-3.790118408E-1,9.897268524E0,9.908146525E0
3.223906833E0,-2.746788025E-1,-3.766168213E-1,9.891280975E0,9.902258733E0
3.233944833E0,-2.704875183E-1,-3.809577942E-1,9.884994049E0,9.896029491E0
3.243983833E0,-2.682421875E-1,-3.740721130E-1,9.894873505E0,9.905574465E0
3.254021833E0,-2.589614868E-1,-3.776646423E-1,9.901010742E0,9.911594491E0
3.264060833E0,-2.670446777E-1,-3.800596619E-1,9.893226929E0,9.904125265E0
3.274099833E0,-2.601589966E-1,-3.769161987E-1,9.893675995E0,9.904270453E0
3.284137833E0,-2.627037048E-1,-3.860472107E-1,9.888436890E0,9.899456036E0
3.294176833E0,-2.688409424E-1,-3.772155762E-1,9.886640625E0,9.897486039E0
3.304214833E0,-2.640509033E-1,-3.761677551E-1,9.897567902E0,9.908232710E0
3.314253833E0,-2.782713318E-1,-3.754193115E-1,9.907597046E0,9.918611486E0
3.324291833E0,-2.700384521E-1,-3.749702454E-1,9.900561676E0,9.911339211E0
3.334330833E0,-2.725831604E-1,-3.682342529E-1,9.888137512E0,9.898745451E0
3.344368833E0,-2.694396973E-1,-3.818559265E-1,9.903106384E0,9.914127685E0
3.354407833E0,-2.715353394E-1,-3.824546814E-1,9.908644867E0,9.919740225E0
3.364445833E0,-2.724334717E-1,-3.893403625E-1,9.896669769E0,9.908071378E0
3.374484833E0,-2.600093079E-1,-3.767665100E-1,9.896370392E0,9.906952345E0
3.384523833E0,-2.610571289E-1,-3.788621521E-1,9.902357941E0,9.913040913E0
3.394561833E0,-2.679428101E-1,-3.909869385E-1,9.892628174E0,9.903976793E0
3.404600208E0,-2.697390747E-1,-3.797602844E-1,9.892328796E0,9.903289658E0
3.414638208E0,-2.785707092E-1,-3.685336304E-1,9.898765411E0,9.909539613E0
3.424677208E0,-2.731819153E-1,-3.815565491E-1,9.899513855E0,9.910630067E0
3.434715208E0,-2.718347168E-1,-3.833528137E-1,9.889335022E0,9.900494971E0
3.444754208E0,-2.677931213E-1,-3.769161987E-1,9.901459808E0,9.912249256E0
3.454792208E0,-2.815644836E-1,-3.673361206E-1,9.894125061E0,9.904944478E0
3.464831208E0,-2.782713318E-1,-3.885919189E-1,9.897118835E0,9.908652777E0
3.474870208E0,-2.707868958E-1,-3.809577942E-1,9.893825684E0,9.904859466E0
3.484908208E0,-2.634521484E-1,-3.838018799E-1,9.903256073E0,9.914191433E0
3.494947208E0,-2.773731995E-1,-3.845503235E-1,9.903555450E0,9.914899163E0
3.504985208E0,-2.616558838E-1,-3.799099731E-1,9.905501404E0,9.916236859E0
3.515024208E0,-2.757266235E-1,-3.761677551E-1,9.907896423E0,9.918867823E0
3.525062208E0,-2.734812927E-1,-3.767665100E-1,9.905052338E0,9.915987436E0
3.535101208E0,-2.555186462E-1,-3.835025024E-1,9.905651093E0,9.916364632E0
3.545139208E0,-2.627037048E-1,-3.808081055E-1,9.902507629E0,9.913308499E0
3.555178208E0,-2.739303589E-1,-3.794609070E-1,9.898466034E0,9.909523613E0
3.565216208E0,-2.661465454E-1,-3.770658875E-1,9.894873505E0,9.905631446E0
3.575255208E0,-2.701881409E-1,-3.728746033E-1,9.898466034E0,9.909170850E0
3.585294208E0,-2.634521484E-1,-3.926335144E-1,9.898316345E0,9.909603150E0
3.595332208E0,-2.653981018E-1,-3.752696228E-1,9.908345490E0,9.919000644E0
3.605371208E0,-2.833607483E-1,-3.731739807E-1,9.898166656E0,9.909250996E0
3.615409208E0,-2.637515259E-1,-3.797602844E-1,9.903106384E0,9.913894230E0
3.625448208E0,-2.674937439E-1,-3.734733582E-1,9.900262299E0,9.910914632E0
3.635486208E0,-2.778222656E-1,-3.939807129E-1,9.900262299E0,9.911992716E0
3.645525208E0,-2.791694641E-1,-3.827540588E-1,9.895621948E0,9.906955637E0
3.655563208E0,-2.630030823E-1,-3.785627747E-1,9.894424438E0,9.905155999E0
3.665602208E0,-2.707868958E-1,-3.677851868E-1,9.898915100E0,9.909445577E0
3.675640208E0,-2.704875183E-1,-3.972738647E-1,9.895322571E0,9.906987373E0
3.685679208E0,-2.637515259E-1,-3.841012573E-1,9.899663544E0,9.910622429E0
3.695718208E0,-2.701881409E-1,-3.641926575E-1,9.901759186E0,9.912137655E0
3.705756208E0,-2.746788025E-1,-3.802093506E-1,9.905351715E0,9.916450988E0
3.715795208E0,-2.680924988E-1,-3.803590393E-1,9.904303894E0,9.915229811E0
3.725833208E0,-2.610571289E-1,-3.713777161E-1,9.909692688E0,9.920084748E0
3.735872208E0,-2.844085693E-1,-3.769161987E-1,9.912836151E0,9.924075504E0
3.745910208E0,-2.757266235E-1,-3.793112183E-1,9.895921326E0,9.907025843E0
3.755949208E0,-2.814147949E-1,-3.821553040E-1,9.909842377E0,9.921200174E0
3.765987208E0,-2.838098145E-1,-3.814068604E-1,9.884844360E0,9.896270370E0
3.776026208E0,-2.733316040E-1,-3.775149536E-1,9.905501404E0,9.916460345E0
3.786064208E0,-2.689906311E-1,-3.781137085E-1,9.892478485E0,9.903355821E0
3.796103208E0,-2.639012146E-1,-3.873944092E-1,9.890233154E0,9.901334765E0
3.806142208E0,-2.793191528E-1,-3.882925415E-1,9.893077240E0,9.904633641E0
3.816180208E0,-2.707868958E-1,-3.933819580E-1,9.890831909E0,9.902354809E0
3.826219208E0,-2.772235107E-1,-3.707789612E-1,9.883646851E0,9.894483563E0
3.836257208E0,-2.877017212E-1,-3.930825806E-1,9.894873505E0,9.906856609E0
3.846296208E0,-2.803669739E-1,-3.863465881E-1,9.898765411E0,9.910268715E0
3.856334208E0,-2.682421875E-1,-3.611988831E-1,9.899513855E0,9.909732240E0
3.866373208E0,-2.576142883E-1,-3.697311401E-1,9.935588837E0,9.945802721E0
3.876411208E0,-2.585124207E-1,-3.740721130E-1,9.906549225E0,9.916979185E0
3.886450208E0,-2.601589966E-1,-3.778143311E-1,9.914931793E0,9.925537710E0
3.896489208E0,-2.767744446E-1,-3.730242920E-1,9.894424438E0,9.905321105E0
3.906527208E0,-2.618055725E-1,-3.797602844E-1,9.905202026E0,9.915936023E0
3.916566208E0,-2.814147949E-1,-3.695814514E-1,9.884395294E0,9.895304698E0
3.926604208E0,-2.562670898E-1,-3.899391174E-1,9.913734283E0,9.924709204E0
3.936643208E0,-2.857557678E-1,-3.737727356E-1,9.878856812E0,9.890054313E0
3.946681208E0,-2.755769348E-1,-3.923341370E-1,9.901310120E0,9.912911318E0
3.956720208E0,-2.773731995E-1,-3.778143311E-1,9.887838135E0,9.898940476E0
3.966758208E0,-2.642005920E-1,-3.891906738E-1,9.898615723E0,9.909786302E0
3.976797208E0,-2.761756897E-1,-3.921844482E-1,9.892179108E0,9.903801752E0
3.986835208E0,-2.701881409E-1,-3.844006348E-1,9.894723816E0,9.905873251E0
3.996874208E0,-2.731819153E-1,-3.706292725E-1,9.899813232E0,9.910514439E0
4.006913208E0,-2.656974792E-1,-3.570075989E-1,9.889784088E0,9.899791861E0
4.016951208E0,-2.636018372E-1,-3.745211792E-1,9.913883972E0,9.924457036E0
4.026990208E0,-2.628533936E-1,-3.809577942E-1,9.902807007E0,9.913617269E0
4.037028208E0,-2.582130432E-1,-3.646417236E-1,9.903256073E0,9.913330339E0
4.047067208E0,-2.615061951E-1,-3.772155762E-1,9.892478485E0,9.903121107E0
4.057105208E0,-2.579136658E-1,-3.790118408E-1,9.914033661E0,9.924627593E0
4.067144208E0,-2.874023438E-1,-3.800596619E-1,9.902507629E0,9.913965039E0
4.077182208E0,-2.790197754E-1,-3.847000122E-1,9.903106384E0,9.914502620E0
4.087221208E0,-2.722837830E-1,-3.839515686E-1,9.881551208E0,9.892755509E0
4.097259208E0,-2.769241333E-1,-3.772155762E-1,9.895621948E0,9.906680186E0
4.107298208E0,-2.826123047E-1,-3.823049927E-1,9.884994049E0,9.896420271E0
4.117337208E0,-2.727328491E-1,-3.847000122E-1,9.891580353E0,9.902814710E0
4.127375208E0,-2.707868958E-1,-3.969744873E-1,9.902357941E0,9.914010645E0
4.137414208E0,-2.615061951E-1,-3.987707520E-1,9.895472260E0,9.906955882E0
4.147452208E0,-2.766247559E-1,-3.909869385E-1,9.882898407E0,9.894497105E0
4.157491208E0,-2.686912537E-1,-3.873944092E-1,9.895472260E0,9.906696758E0
4.167529208E0,-2.573149109E-1,-3.788621521E-1,9.902357941E0,9.912943068E0
4.177568208E0,-2.653981018E-1,-3.754193115E-1,9.910590820E0,9.921249227E0
4.187606208E0,-2.637515259E-1,-3.802093506E-1,9.895023193E0,9.905837068E0
4.197645208E0,-2.748284912E-1,-3.721261597E-1,9.894723816E0,9.905532190E0
4.207683208E0,-2.745291138E-1,-3.743714905E-1,9.911788330E0,9.922654289E0
4.217722208E0,-2.727328491E-1,-3.679348755E-1,9.898316345E0,9.908906385E0
4.227761208E0,-2.538720703E-1,-3.841012573E-1,9.910740509E0,9.921429445E0
4.237799208E0,-2.652484131E-1,-3.851490784E-1,9.901160431E0,9.912198263E0
4.247838208E0,-2.568658447E-1,-3.797602844E-1,9.881850586E0,9.892480424E0
4.257876208E0,-2.713856506E-1,-3.787124634E-1,9.886341248E0,9.897313603E0
4.267915208E0,-2.686912537E-1,-3.784130859E-1,9.891430664E0,9.902312459E0
4.277953208E0,-2.659968567E-1,-3.945794678E-1,9.898915100E0,9.910346485E0
4.287992208E0,-2.513273621E-1,-3.785627747E-1,9.898765411E0,9.909189265E0
4.298030208E0,-2.706372070E-1,-3.876937866E-1,9.897567902E0,9.908854694E0
4.308069208E0,-2.709365845E-1,-3.776646423E-1,9.897418213E0,9.908326019E0
4.318108208E0,-2.694396973E-1,-3.799099731E-1,9.894574127E0,9.905530097E0
4.328146208E0,-2.724334717E-1,-3.731739807E-1,9.897118835E0,9.907897863E0
4.338185208E0,-2.609074402E-1,-3.830534363E-1,9.919422455E0,9.930243928E0
4.348223208E0,-2.603086853E-1,-3.835025024E-1,9.910441132E0,9.921274021E0
4.358262208E0,-2.674937439E-1,-3.718267822E-1,9.895322571E0,9.905918273E0
4.368300208E0,-2.644999695E-1,-3.760180664E-1,9.892927551E0,9.903603655E0
4.378339208E0,-2.655477905E-1,-3.707789612E-1,9.898915100E0,9.909415362E0
4.388377208E0,-2.637515259E-1,-3.734733582E-1,9.897867279E0,9.908421867E0
4.398416625E0,-2.691403198E-1,-3.797602844E-1,9.908046112E0,9.918973341E0
4.408454625E0,-2.682421875E-1,-3.848497009E-1,9.886790314E0,9.897913208E0
4.418493625E0,-2.664459229E-1,-3.851490784E-1,9.900411987E0,9.911482773E0
4.428532625E0,-2.667453003E-1,-3.849993896E-1,9.900411987E0,9.911485010E0
4.438570625E0,-2.697390747E-1,-3.799099731E-1,9.901459808E0,9.912416309E0
4.448609625E0,-2.712359619E-1,-3.794609070E-1,9.895322571E0,9.906309520E0
4.458647625E0,-2.824626160E-1,-3.779640198E-1,9.890083466E0,9.901332884E0
4.468686625E0,-2.784210205E-1,-3.866459656E-1,9.901609497E0,9.913066327E0
4.478724625E0,-2.649490356E-1,-3.814068604E-1,9.891730042E0,9.902625531E0
4.488763625E0,-2.731819153E-1,-3.860472107E-1,9.901908875E0,9.913196264E0
4.498801625E0,-2.639012146E-1,-3.796105957E-1,9.899962921E0,9.910752438E0
4.508840625E0,-2.719844055E-1,-3.670367432E-1,9.895172882E0,9.905712385E0
4.518878625E0,-2.585124207E-1,-3.800596619E-1,9.896071014E0,9.906739905E0
4.528917625E0,-2.686912537E-1,-3.799099731E-1,9.901310120E0,9.912238328E0
4.538956625E0,-2.700384521E-1,-3.649411011E-1,9.896220703E0,9.906628436E0
4.548994625E0,-2.763253784E-1,-3.844006348E-1,9.889185333E0,9.900510397E0
4.559033625E0,-2.650987244E-1,-3.800596619E-1,9.901459808E0,9.912296859E0
4.569071625E0,-2.686912537E-1,-3.793112183E-1,9.893825684E0,9.904739201E0
4.579110625E0,-2.646496582E-1,-3.770658875E-1,9.893975372E0,9.904694180E0
4.589148625E0,-2.607577515E-1,-3.803590393E-1,9.902208252E0,9.912940828E0
4.599187625E0,-2.736309814E-1,-3.995191956E-1,9.902357941E0,9.914190955E0
4.609225625E0,-2.752775574E-1,-3.733236694E-1,9.896071014E0,9.906935440E0
4.619264625E0,-2.656974792E-1,-3.791615295E-1,9.887987823E0,9.898821234E0
4.629302625E0,-2.673440552E-1,-3.820056152E-1,9.890831909E0,9.901815843E0
4.639341625E0,-2.655477905E-1,-3.778143311E-1,9.899364166E0,9.910129676E0
4.649380625E0,-2.576142883E-1,-3.788621521E-1,9.895172882E0,9.905773469E0
4.659418625E0,-2.656974792E-1,-3.710783386E-1,9.912985840E0,9.923486411E0
4.669457625E0,-2.540217590E-1,-3.728746033E-1,9.898466034E0,9.908743228E0
4.679495625E0,-2.707868958E-1,-3.769161987E-1,9.905501404E0,9.916367754E0
4.689534625E0,-2.571652222E-1,-3.848497009E-1,9.915979614E0,9.926776665E0
4.699572625E0,-2.650987244E-1,-3.791615295E-1,9.912087708E0,9.922878792E0
4.709611625E0,-2.718347168E-1,-3.718267822E-1,9.897867279E0,9.908578402E0
4.719649625E0,-2.763253784E-1,-3.820056152E-1,9.892179108E0,9.903408075E0
4.729688625E0,-2.790197754E-1,-3.785627747E-1,9.906249847E0,9.917406307E0
4.739727625E0,-2.700384521E-1,-3.848497009E-1,9.903405762E0,9.914558777E0
4.749765625E0,-2.770738220E-1,-3.799099731E-1,9.908944244E0,9.920094633E0
4.759804625E0,-2.704875183E-1,-3.823049927E-1,9.888885956E0,9.899968992E0
4.769842625E0,-2.781216431E-1,-3.830534363E-1,9.901908875E0,9.913217487E0
4.779881625E0,-2.574645996E-1,-3.861968994E-1,9.892628174E0,9.903510905E0
4.789919625E0,-2.655477905E-1,-3.891906738E-1,9.895172882E0,9.906383365E0
4.799958625E0,-2.736309814E-1,-3.835025024E-1,9.896370392E0,9.907577656E0
4.809996625E0,-2.767744446E-1,-3.836521912E-1,9.912536774E0,9.923818740E0
4.820035625E0,-2.597099304E-1,-3.715274048E-1,9.895771637E0,9.906148502E0
4.830073625E0,-2.739303589E-1,-3.836521912E-1,9.897567902E0,9.908787878E0
4.840112625E0,-2.769241333E-1,-3.827540588E-1,9.903854828E0,9.915116141E0
4.850151625E0,-2.683918762E-1,-3.851490784E-1,9.901759186E0,9.912880963E0
4.860189625E0,-2.610571289E-1,-3.800596619E-1,9.898915100E0,9.909647639E0
4.870228625E0,-2.616558838E-1,-3.845503235E-1,9.897567902E0,9.908490961E0
4.880266625E0,-2.706372070E-1,-3.876937866E-1,9.899364166E0,9.910648912E0
4.890305625E0,-2.778222656E-1,-3.751199341E-1,9.894424438E0,9.905429579E0
4.900343625E0,-2.794688416E-1,-3.830534363E-1,9.890382843E0,9.901742551E0
4.910382625E0,-2.664459229E-1,-3.851490784E-1,9.896669769E0,9.907744737E0
4.920420625E0,-2.671943665E-1,-3.887416077E-1,9.892478485E0,9.903718668E0
4.930459625E0,-2.719844055E-1,-3.944297791E-1,9.890233154E0,9.901831256E0
4.940497625E0,-2.577639771E-1,-3.908372498E-1,9.893526306E0,9.904597861E0
4.950536625E0,-2.682421875E-1,-3.805087280E-1,9.889933777E0,9.900885358E0
4.960575625E0,-2.763253784E-1,-3.769161987E-1,9.887987823E0,9.899026454E0
4.970613625E0,-2.704875183E-1,-3.885919189E-1,9.898765411E0,9.910081929E0
4.980652625E0,-2.636018372E-1,-3.619473267E-1,9.899364166E0,9.909485491E0
4.990690625E0,-2.745291138E-1,-3.634442139E-1,9.894274750E0,9.904752938E0
5.000729625E0,-2.715353394E-1,-3.809577942E-1,9.909542999E0,9.920579758E0
5.010767625E0,-2.643502808E-1,-3.722758484E-1,9.904004517E0,9.914523480E0
5.020806625E0,-2.806663513E-1,-3.845503235E-1,9.910890198E0,9.922318130E0
5.030844625E0,-2.583627319E-1,-3.803590393E-1,9.896370392E0,9.907046544E0
5.040883625E0,-2.683918762E-1,-3.688330078E-1,9.906249847E0,9.916746343E0
5.050922625E0,-2.647993469E-1,-3.851490784E-1,9.887389069E0,9.898430234E0
5.060960625E0,-2.691403198E-1,-3.806584167E-1,9.890981598E0,9.901962145E0
5.070999625E0,-2.673440552E-1,-3.855981445E-1,9.902956696E0,9.914066274E0
5.081037625E0,-2.748284912E-1,-3.830534363E-1,9.892777863E0,9.904004971E0
5.091076625E0,-2.661465454E-1,-3.808081055E-1,9.902208252E0,9.913101284E0
5.101114625E0,-2.739303589E-1,-3.778143311E-1,9.902058563E0,9.913049243E0
5.111153625E0,-2.769241333E-1,-3.896397400E-1,9.901459808E0,9.912992103E0
5.121191625E0,-2.621049500E-1,-3.737727356E-1,9.911339264E0,9.921847160E0
5.131230625E0,-2.775228882E-1,-3.924838257E-1,9.888736267E0,9.900412490E0
5.141268625E0,-2.615061951E-1,-3.841012573E-1,9.898615723E0,9.909516259E0
5.151307625E0,-2.742297363E-1,-3.794609070E-1,9.901160431E0,9.912223283E0
5.161346625E0,-2.652484131E-1,-3.811074829E-1,9.899064789E0,9.909948705E0
5.171384625E0,-2.673440552E-1,-3.818559265E-1,9.899364166E0,9.910332875E0
5.181423625E0,-2.731819153E-1,-3.767665100E-1,9.905800781E0,9.916726803E0
5.191461625E0,-2.718347168E-1,-3.911366272E-1,9.911039886E0,9.922479207E0
5.201500625E0,-2.647993469E-1,-3.776646423E-1,9.907896423E0,9.918626962E0
5.211538625E0,-2.540217590E-1,-3.894900513E-1,9.903106384E0,9.914017632E0
5.221577625E0,-2.665956116E-1,-3.876937866E-1,9.906549225E0,9.917716332E0
5.231615625E0,-2.689906311E-1,-3.749702454E-1,9.898466034E0,9.909217349E0
5.241654625E0,-2.643502808E-1,-3.788621521E-1,9.896669769E0,9.907446196E0
5.251692625E0,-2.646496582E-1,-3.878434753E-1,9.894574127E0,9.905708413E0
5.261731625E0,-2.683918762E-1,-3.832031250E-1,9.898615723E0,9.909665588E0
5.271770625E0,-2.736309814E-1,-3.829037476E-1,9.895472260E0,9.906657379E0
5.281808625E0,-2.724334717E-1,-3.824546814E-1,9.894574127E0,9.905709906E0
5.291847625E0,-2.743794250E-1,-3.811074829E-1,9.896669769E0,9.907804979E0
5.301885625E0,-2.692900085E-1,-3.815565491E-1,9.909393311E0,9.920392043E0
5.311924625E0,-2.707868958E-1,-3.811074829E-1,9.896220703E0,9.907257575E0
5.321962625E0,-2.662962341E-1,-3.790118408E-1,9.898915100E0,9.909746910E0
5.332001625E0,-2.612068176E-1,-3.878434753E-1,9.906549225E0,9.917578793E0
5.342039625E0,-2.718347168E-1,-3.718267822E-1,9.906549225E0,9.917250971E0
5.352078625E0,-2.730322266E-1,-3.716770935E-1,9.904004517E0,9.914736301E0
5.362117625E0,-2.615061951E-1,-3.811074829E-1,9.904453583E0,9.915232180E0
5.372155625E0,-2.847079468E-1,-3.847000122E-1,9.891879730E0,9.903450778E0
5.382194625E0,-2.752775574E-1,-3.785627747E-1,9.898615723E0,9.909676116E0
5.392232625E0,-2.656974792E-1,-3.743714905E-1,9.891131287E0,9.901778996E0
5.402271458E0,-2.760260010E-1,-3.863465881E-1,9.892927551E0,9.904315704E0
5.412309458E0,-2.740800476E-1,-3.836521912E-1,9.892029419E0,9.903259812E0
5.422348458E0,-2.661465454E-1,-3.872447205E-1,9.894723816E0,9.905874613E0
5.432386458E0,-2.725831604E-1,-3.797602844E-1,9.898016968E0,9.909049366E0
5.442425458E0,-2.715353394E-1,-3.775149536E-1,9.903405762E0,9.914317660E0
5.452463458E0,-2.716850281E-1,-3.899391174E-1,9.904453583E0,9.915849235E0
5.462502458E0,-2.875520325E-1,-3.864962769E-1,9.894574127E0,9.906294095E0
5.472541458E0,-2.781216431E-1,-3.812571716E-1,9.896370392E0,9.907616041E0
5.482579458E0,-2.643502808E-1,-3.830534363E-1,9.900112610E0,9.911046398E0
5.492618458E0,-2.662962341E-1,-3.731739807E-1,9.895621948E0,9.906235725E0
5.502656458E0,-2.784210205E-1,-3.932322693E-1,9.901010742E0,9.912727354E0
5.512695458E0,-2.821632385E-1,-3.677851868E-1,9.897418213E0,9.908267725E0
5.522733458E0,-2.788700867E-1,-3.790118408E-1,9.906998291E0,9.918166849E0
5.532772458E0,-2.603086853E-1,-3.791615295E-1,9.892478485E0,9.903163871E0
5.542810458E0,-2.683918762E-1,-3.894900513E-1,9.899813232E0,9.911106837E0
5.552849458E0,-2.674937439E-1,-3.864962769E-1,9.888586578E0,9.899751350E0
5.562887458E0,-2.722837830E-1,-3.833528137E-1,9.902357941E0,9.913515553E0
5.572926458E0,-2.671943665E-1,-3.839515686E-1,9.893226929E0,9.904279413E0
5.582965458E0,-2.736309814E-1,-3.821553040E-1,9.896520081E0,9.907675121E0
5.593003458E0,-2.728825378E-1,-3.838018799E-1,9.897418213E0,9.908615243E0
5.603042458E0,-2.749781799E-1,-3.737727356E-1,9.908345490E0,9.919205079E0
5.613080458E0,-2.703378296E-1,-3.794609070E-1,9.907147980E0,9.918097308E0
5.623119458E0,-2.754272461E-1,-3.818559265E-1,9.902507629E0,9.913694138E0
5.633157458E0,-2.649490356E-1,-3.661386108E-1,9.895472260E0,9.905787536E0
5.643196458E0,-2.700384521E-1,-3.721261597E-1,9.881700897E0,9.892391585E0
5.653234458E0,-2.649490356E-1,-3.749702454E-1,9.896819458E0,9.907463654E0
5.663273458E0,-2.677931213E-1,-3.909869385E-1,9.900861053E0,9.912196202E0
5.673312458E0,-2.730322266E-1,-3.836521912E-1,9.906249847E0,9.917435235E0
5.683350458E0,-2.688409424E-1,-3.787124634E-1,9.896969147E0,9.907860358E0
5.693389458E0,-2.703378296E-1,-3.806584167E-1,9.914333038E0,9.925320295E0
5.703427458E0,-2.685415649E-1,-3.791615295E-1,9.896220703E0,9.907121794E0
5.713466458E0,-2.776725769E-1,-3.897894287E-1,9.882748718E0,9.894329694E0
5.723504458E0,-2.733316040E-1,-3.721261597E-1,9.895023193E0,9.905789824E0
5.733543458E0,-2.758763123E-1,-3.782633972E-1,9.892927551E0,9.903999519E0
5.743581458E0,-2.679428101E-1,-3.882925415E-1,9.902208252E0,9.913440004E0
5.753620458E0,-2.707868958E-1,-3.746708679E-1,9.901160431E0,9.911946412E0
5.763658458E0,-2.830613708E-1,-3.881428528E-1,9.890682220E0,9.902341814E0
5.773697458E0,-2.820135498E-1,-3.788621521E-1,9.905800781E0,9.917053861E0
5.783736458E0,-2.722837830E-1,-3.820056152E-1,9.896071014E0,9.907183670E0
5.793774458E0,-2.817141724E-1,-3.778143311E-1,9.891879730E0,9.903100077E0
5.803813458E0,-2.752775574E-1,-3.688330078E-1,9.906848602E0,9.917533199E0
5.813851458E0,-2.769241333E-1,-3.761677551E-1,9.908345490E0,9.919349752E0
5.823890458E0,-2.692900085E-1,-3.823049927E-1,9.905052338E0,9.916084713E0
5.833928458E0,-2.613565063E-1,-3.866459656E-1,9.898316345E0,9.909312226E0
5.843967458E0,-2.613565063E-1,-3.829037476E-1,9.909243622E0,9.920082241E0
5.854005458E0,-2.757266235E-1,-3.833528137E-1,9.893077240E0,9.904340555E0
5.864044458E0,-2.785707092E-1,-3.878434753E-1,9.890981598E0,9.902501763E0
5.874082458E0,-2.737806702E-1,-3.761677551E-1,9.899962921E0,9.910889157E0
5.884121458E0,-2.731819153E-1,-3.692820740E-1,9.911339264E0,9.921977808E0
5.894160458E0,-2.701881409E-1,-3.737727356E-1,9.903256073E0,9.913989537E0
5.904198458E0,-2.719844055E-1,-3.823049927E-1,9.893226929E0,9.904346101E0
5.914237458E0,-2.742297363E-1,-3.849993896E-1,9.904752960E0,9.916025297E0
5.924275458E0,-2.721340942E-1,-3.847000122E-1,9.896819458E0,9.908031411E0
5.934314458E0,-2.742297363E-1,-3.821553040E-1,9.906698914E0,9.917859043E0
5.944352458E0,-2.820135498E-1,-3.773652649E-1,9.895921326E0,9.907128498E0
5.954391458E0,-2.630030823E-1,-3.836521912E-1,9.888436890E0,9.899370876E0
5.964429458E0,-2.763253784E-1,-3.845503235E-1,9.894274750E0,9.905599805E0
5.974468458E0,-2.667453003E-1,-3.784130859E-1,9.891580353E0,9.902409373E0
5.984507458E0,-2.739303589E-1,-3.803590393E-1,9.898166656E0,9.909259004E0
5.994545458E0,-2.782713318E-1,-3.722758484E-1,9.894125061E0,9.905035839E0
6.004584458E0,-2.764750671E-1,-3.793112183E-1,9.892628174E0,9.903757249E0
6.014622458E0,-2.754272461E-1,-3.731739807E-1,9.903256073E0,9.914111147E0
6.024661458E0,-2.728825378E-1,-3.806584167E-1,9.901160431E0,9.912232018E0
6.034699458E0,-2.691403198E-1,-3.811074829E-1,9.911938019E0,9.922912612E0
6.044738458E0,-2.689906311E-1,-3.845503235E-1,9.898765411E0,9.909883530E0
6.054776458E0,-2.760260010E-1,-3.752696228E-1,9.904603271E0,9.915552612E0
6.064815458E0,-2.631527710E-1,-3.879931641E-1,9.895172882E0,9.906272480E0
6.074853458E0,-2.769241333E-1,-3.857478333E-1,9.896071014E0,9.907457287E0
6.084892458E0,-2.598596191E-1,-3.800596619E-1,9.885592804E0,9.896308274E0
6.094931458E0,-2.525248718E-1,-3.809577942E-1,9.890233154E0,9.900788327E0
6.104969458E0,-2.582130432E-1,-3.718267822E-1,9.902807007E0,9.913148629E0
6.115008458E0,-2.579136658E-1,-3.626957703E-1,9.893376617E0,9.903381674E0
6.125046458E0,-2.707868958E-1,-3.858975220E-1,9.894125061E0,9.905349724E0
6.135085458E0,-2.746788025E-1,-3.851490784E-1,9.896669769E0,9.907969559E0
6.145123458E0,-2.760260010E-1,-3.722758484E-1,9.896220703E0,9.907066360E0
6.155162458E0,-2.851570129E-1,-3.803590393E-1,9.887987823E0,9.899408604E0
6.165200458E0,-2.712359619E-1,-3.734733582E-1,9.885443115E0,9.896213260E0
6.175239458E0,-2.652484131E-1,-3.920347595E-1,9.888586578E0,9.899908711E0
6.185278458E0,-2.627037048E-1,-3.794609070E-1,9.903256073E0,9.914004472E0
6.195316458E0,-2.689906311E-1,-3.841012573E-1,9.894274750E0,9.905380485E0
6.205355458E0,-2.772235107E-1,-3.836521912E-1,9.894873505E0,9.906188144E0
6.215393458E0,-2.776725769E-1,-3.844006348E-1,9.898016968E0,9.909369597E0
6.225432458E0,-2.650987244E-1,-3.905378723E-1,9.918374634E0,9.929599818E0
6.235470458E0,-2.710862732E-1,-3.802093506E-1,9.898615723E0,9.909623613E0
6.245509458E0,-2.733316040E-1,-3.881428528E-1,9.904303894E0,9.915674494E0
6.255547458E0,-2.704875183E-1,-3.896397400E-1,9.892179108E0,9.903544321E0
6.265586458E0,-2.610571289E-1,-3.905378723E-1,9.899064789E0,9.910204556E0
6.275624458E0,-2.618055725E-1,-3.707789612E-1,9.913285217E0,9.923670843E0
6.285663458E0,-2.736309814E-1,-3.820056152E-1,9.892478485E0,9.903632302E0
6.295702458E0,-2.595602417E-1,-3.773652649E-1,9.894723816E0,9.905318544E0
6.305740458E0,-2.706372070E-1,-3.749702454E-1,9.912536774E0,9.923317614E0
6.315779458E0,-2.679428101E-1,-3.896397400E-1,9.904902649E0,9.916184194E0
6.325817458E0,-2.734812927E-1,-3.861968994E-1,9.901010742E0,9.912313241E0
6.335856458E0,-2.802172852E-1,-3.854484558E-1,9.906399536E0,9.917854809E0
6.345894458E0,-2.649490356E-1,-3.832031250E-1,9.896669769E0,9.907629139E0
6.355933458E0,-2.616558838E-1,-3.844006348E-1,9.904453583E0,9.915363252E0
6.365971458E0,-2.710862732E-1,-3.908372498E-1,9.899813232E0,9.911233201E0
6.376010458E0,-2.695893860E-1,-3.796105957E-1,9.898166656E0,9.909111252E0
6.386048458E0,-2.674937439E-1,-3.918850708E-1,9.890831909E0,9.902205950E0
6.396087458E0,-2.607577515E-1,-3.878434753E-1,9.901459808E0,9.912483216E0
6.406126500E0,-2.674937439E-1,-3.962260437E-1,9.893077240E0,9.904621409E0
6.416164500E0,-2.677931213E-1,-3.778143311E-1,9.898166656E0,9.908993894E0
6.426203500E0,-2.722837830E-1,-3.838018799E-1,9.896071014E0,9.907253094E0
6.436241500E0,-2.724334717E-1,-3.830534363E-1,9.900411987E0,9.911564329E0
6.446280500E0,-2.776725769E-1,-3.761677551E-1,9.908345490E0,9.919370675E0
6.456318500E0,-2.746788025E-1,-3.818559265E-1,9.901160431E0,9.912327692E0
6.466357500E0,-2.721340942E-1,-3.848497009E-1,9.899813232E0,9.911027610E0
6.476395500E0,-2.791694641E-1,-3.869453430E-1,9.894723816E0,9.906221362E0
6.486434500E0,-2.739303589E-1,-3.942800903E-1,9.909093933E0,9.920717575E0
6.496473500E0,-2.803669739E-1,-3.805087280E-1,9.898016968E0,9.909295254E0
6.506511500E0,-2.817141724E-1,-3.772155762E-1,9.897717590E0,9.908908515E0
6.516550500E0,-2.704875183E-1,-3.760180664E-1,9.890682220E0,9.901522503E0
6.526588500E0,-2.755769348E-1,-3.800596619E-1,9.905501404E0,9.916619689E0
6.536627500E0,-2.713856506E-1,-3.827540588E-1,9.903854828E0,9.914963000E0
6.546665500E0,-2.679428101E-1,-3.832031250E-1,9.896669769E0,9.907709650E0
6.556704500E0,-2.802172852E-1,-3.867956543E-1,9.894424438E0,9.905946072E0
6.566742500E0,-2.767744446E-1,-3.814068604E-1,9.904902649E0,9.916106684E0
6.576781500E0,-2.710862732E-1,-3.745211792E-1,9.910441132E0,9.921219547E0
6.586820500E0,-2.794688416E-1,-3.791615295E-1,9.896819458E0,9.908022087E0
6.596858500E0,-2.676434326E-1,-3.888912964E-1,9.885443115E0,9.896709303E0
6.606897500E0,-2.740800476E-1,-3.959266663E-1,9.898016968E0,9.909723391E0
6.616935500E0,-2.677931213E-1,-3.861968994E-1,9.897268524E0,9.908419927E0
6.626974500E0,-2.727328491E-1,-3.867956543E-1,9.890532532E0,9.901849718E0
6.637012500E0,-2.604583740E-1,-3.832031250E-1,9.891879730E0,9.902725271E0
6.647051500E0,-2.793191528E-1,-3.983216858E-1,9.895023193E0,9.906975490E0
6.657089500E0,-2.619552612E-1,-3.926335144E-1,9.895921326E0,9.907171166E0
6.667128500E0,-2.642005920E-1,-3.935316467E-1,9.893077240E0,9.904425596E0
6.677166500E0,-2.591111755E-1,-3.842509460E-1,9.906100159E0,9.916935401E0
6.687205500E0,-2.664459229E-1,-3.802093506E-1,9.894125061E0,9.905012029E0
6.697244500E0,-2.791694641E-1,-3.809577942E-1,9.901160431E0,9.912418590E0
6.707282500E0,-2.647993469E-1,-3.787124634E-1,9.892179108E0,9.902966693E0
6.717321500E0,-2.685415649E-1,-3.757186890E-1,9.908345490E0,9.919102250E0
6.727359500E0,-2.821632385E-1,-3.791615295E-1,9.905052338E0,9.916321968E0
6.737398500E0,-2.688409424E-1,-3.799099731E-1,9.896370392E0,9.907308109E0
6.747436500E0,-2.776725769E-1,-3.751199341E-1,9.897268524E0,9.908266310E0
6.757475500E0,-2.683918762E-1,-3.839515686E-1,9.896969147E0,9.908049823E0
6.767513500E0,-2.734812927E-1,-3.800596619E-1,9.901310120E0,9.912375066E0
6.777552500E0,-2.797682190E-1,-3.796105957E-1,9.887538757E0,9.898777558E0
6.787590500E0,-2.662962341E-1,-3.891906738E-1,9.899064789E0,9.910290952E0
6.797629500E0,-2.751278687E-1,-3.894900513E-1,9.897418213E0,9.908899289E0
6.807668500E0,-2.745291138E-1,-3.704795837E-1,9.897717590E0,9.908452697E0
6.817706500E0,-2.700384521E-1,-3.866459656E-1,9.903705139E0,9.914927703E0
6.827745500E0,-2.668949890E-1,-3.778143311E-1,9.898915100E0,9.909717290E0
6.837783500E0,-2.597099304E-1,-3.728746033E-1,9.908195801E0,9.918610222E0
6.847822500E0,-2.659968567E-1,-3.772155762E-1,9.905501404E0,9.916249492E0
6.857860500E0,-2.794688416E-1,-3.879931641E-1,9.896220703E0,9.907765931E0
6.867899500E0,-2.727328491E-1,-3.848497009E-1,9.907447357E0,9.918669550E0
6.877937500E0,-2.688409424E-1,-3.826043701E-1,9.884395294E0,9.895450060E0
6.887976500E0,-2.742297363E-1,-3.734733582E-1,9.891580353E0,9.902426277E0
6.898015500E0,-2.781216431E-1,-3.748205566E-1,9.897418213E0,9.908417098E0
6.908053500E0,-2.683918762E-1,-3.842509460E-1,9.895023193E0,9.906117655E0
6.918092500E0,-2.676434326E-1,-3.772155762E-1,9.899364166E0,9.910163243E0
6.928130500E0,-2.712359619E-1,-3.751199341E-1,9.903854828E0,9.914667133E0
6.938169500E0,-2.661465454E-1,-3.562591553E-1,9.888885956E0,9.898879735E0
6.948207500E0,-2.597099304E-1,-3.844006348E-1,9.893825684E0,9.904695844E0
6.958246500E0,-2.674937439E-1,-3.827540588E-1,9.904603271E0,9.915604850E0
6.968284500E0,-2.761756897E-1,-3.755690002E-1,9.895921326E0,9.906895779E0
6.978323500E0,-2.829116821E-1,-3.671864319E-1,9.886490936E0,9.897351561E0
6.988362500E0,-2.838098145E-1,-3.788621521E-1,9.896071014E0,9.907386440E0
6.998400500E0,-2.639012146E-1,-3.769161987E-1,9.910590820E0,9.921266052E0
7.008439500E0,-2.677931213E-1,-3.864962769E-1,9.904303894E0,9.915459049E0
7.018477500E0,-2.737806702E-1,-3.851490784E-1,9.902807007E0,9.914074958E0
7.028516500E0,-2.751278687E-1,-3.737727356E-1,9.889335022E0,9.900219623E0
7.038554500E0,-2.665956116E-1,-3.854484558E-1,9.904303894E0,9.915385991E0
7.048593500E0,-2.724334717E-1,-3.869453430E-1,9.900112610E0,9.911416467E0
7.058631500E0,-2.845582581E-1,-3.790118408E-1,9.895771637E0,9.907114599E0
7.068670500E0,-2.850073242E-1,-3.914360046E-1,9.901160431E0,9.912992949E0
7.078708500E0,-2.761756897E-1,-3.838018799E-1,9.905351715E0,9.916630955E0
7.088747500E0,-2.701881409E-1,-3.766168213E-1,9.892328796E0,9.903181856E0
7.098786500E0,-2.555186462E-1,-3.835025024E-1,9.900112610E0,9.910832136E0
7.108824500E0,-2.737806702E-1,-3.764671326E-1,9.888586578E0,9.899536751E0
7.118863500E0,-2.564167786E-1,-3.818559265E-1,9.886940002E0,9.897633360E0
7.128901500E0,-2.685415649E-1,-3.902384949E-1,9.893077240E0,9.904412044E0
7.138940500E0,-2.736309814E-1,-3.725752258E-1,9.898915100E0,9.909702638E0
7.148978500E0,-2.806663513E-1,-3.885919189E-1,9.898915100E0,9.910514489E0
7.159017500E0,-2.703378296E-1,-3.815565491E-1,9.896669769E0,9.907711162E0
7.169055500E0,-2.830613708E-1,-3.860472107E-1,9.903256073E0,9.914819062E0
7.179094500E0,-2.802172852E-1,-3.794609070E-1,9.903106384E0,9.914334489E0
7.189133500E0,-2.827619934E-1,-3.679348755E-1,9.893077240E0,9.903954144E0
7.199171500E0,-2.742297363E-1,-3.845503235E-1,9.894424438E0,9.905691085E0
7.209210500E0,-2.824626160E-1,-3.887416077E-1,9.904603271E0,9.916252878E0
7.219248500E0,-2.818638611E-1,-3.734733582E-1,9.893825684E0,9.904883454E0
7.229287500E0,-2.680924988E-1,-3.779640198E-1,9.898615723E0,9.909456272E0
7.239325500E0,-2.697390747E-1,-3.719764709E-1,9.914931793E0,9.925572937E0
7.249364500E0,-2.700384521E-1,-3.778143311E-1,9.899962921E0,9.910849120E0
7.259402500E0,-2.683918762E-1,-3.855981445E-1,9.894274750E0,9.905422401E0
7.269441500E0,-2.680924988E-1,-3.814068604E-1,9.900411987E0,9.911382462E0
7.279480500E0,-2.769241333E-1,-3.902384949E-1,9.895921326E0,9.907483633E0
7.289518500E0,-2.781216431E-1,-3.890409851E-1,9.896819458E0,9.908367167E0
7.299557500E0,-2.670446777E-1,-3.933819580E-1,9.912087708E0,9.923484516E0
7.309595500E0,-2.659968567E-1,-3.897894287E-1,9.893376617E0,9.904624729E0
7.319634500E0,-2.760260010E-1,-3.863465881E-1,9.904303894E0,9.915678982E0
7.329672500E0,-2.817141724E-1,-3.800596619E-1,9.902657318E0,9.913951290E0
7.339711500E0,-2.821632385E-1,-3.811074829E-1,9.893975372E0,9.905332285E0
7.349749500E0,-2.751278687E-1,-3.829037476E-1,9.914183350E0,9.925388764E0
7.359788500E0,-2.677931213E-1,-3.912863159E-1,9.905052338E0,9.916394503E0
7.369826500E0,-2.745291138E-1,-3.808081055E-1,9.893675995E0,9.904807204E0
7.379865500E0,-2.706372070E-1,-3.839515686E-1,9.893975372E0,9.905120493E0
7.389904500E0,-2.649490356E-1,-3.790118408E-1,9.894125061E0,9.904925981E0
7.399942500E0,-2.668949890E-1,-3.760180664E-1,9.899962921E0,9.910695655E0
7.409981625E0,-2.619552612E-1,-3.872447205E-1,9.895023193E0,9.906061933E0
7.420019625E0,-2.652484131E-1,-3.878434753E-1,9.894424438E0,9.905574908E0
7.430058625E0,-2.700384521E-1,-3.715274048E-1,9.899813232E0,9.910461917E0
7.440096625E0,-2.718347168E-1,-3.826043701E-1,9.892628174E0,9.903755470E0
7.450135625E0,-2.871029663E-1,-3.905378723E-1,9.903705139E0,9.915559663E0
7.460173625E0,-2.775228882E-1,-3.890409851E-1,9.905052338E0,9.916573685E0
7.470212625E0,-2.824626160E-1,-3.900888062E-1,9.886790314E0,9.898513884E0
7.480251625E0,-2.806663513E-1,-3.784130859E-1,9.907147980E0,9.918344174E0
7.490289625E0,-2.689906311E-1,-3.793112183E-1,9.905202026E0,9.916111140E0
7.500328625E0,-2.799179077E-1,-3.752696228E-1,9.911788330E0,9.922838768E0
7.510366625E0,-2.680924988E-1,-3.787124634E-1,9.890083466E0,9.900961957E0
7.520405625E0,-2.680924988E-1,-3.814068604E-1,9.896370392E0,9.907345341E0
7.530443625E0,-2.763253784E-1,-3.814068604E-1,9.898615723E0,9.909814334E0
7.540482625E0,-2.713856506E-1,-3.763174438E-1,9.893526306E0,9.904399414E0
7.550520625E0,-2.610571289E-1,-3.818559265E-1,9.913584595E0,9.924370221E0
7.560559625E0,-2.610571289E-1,-3.710783386E-1,9.902058563E0,9.912447415E0
7.570598625E0,-2.555186462E-1,-3.814068604E-1,9.900711365E0,9.911349378E0
7.580636625E0,-2.721340942E-1,-3.838018799E-1,9.916428680E0,9.927583725E0
7.590675625E0,-2.668949890E-1,-3.761677551E-1,9.904902649E0,9.915635713E0
7.600713625E0,-2.775228882E-1,-3.727249146E-1,9.904902649E0,9.915797462E0
7.610752625E0,-2.698887634E-1,-3.854484558E-1,9.902657318E0,9.913830360E0
7.620790625E0,-2.859054565E-1,-3.920347595E-1,9.900112610E0,9.911995908E0
7.630829625E0,-2.770738220E-1,-3.752696228E-1,9.892628174E0,9.903620014E0
7.640867625E0,-2.903961182E-1,-3.861968994E-1,9.895023193E0,9.906813915E0
7.650906625E0,-2.809657288E-1,-3.833528137E-1,9.889335022E0,9.900749886E0
7.660945625E0,-2.719844055E-1,-3.791615295E-1,9.890382843E0,9.901384336E0
7.670983625E0,-2.571652222E-1,-3.962260437E-1,9.890981598E0,9.902254592E0
7.681022625E0,-2.697390747E-1,-3.936813354E-1,9.905800781E0,9.917289614E0
7.691060625E0,-2.504292297E-1,-3.784130859E-1,9.901609497E0,9.912001912E0
7.701099625E0,-2.659968567E-1,-3.755690002E-1,9.899962921E0,9.910654481E0
7.711137625E0,-2.674937439E-1,-3.752696228E-1,9.909992065E0,9.920701736E0
7.721176625E0,-2.725831604E-1,-3.824546814E-1,9.902058563E0,9.913190049E0
7.731214625E0,-2.689906311E-1,-3.849993896E-1,9.903705139E0,9.914835146E0
7.741253625E0,-2.613565063E-1,-3.653901672E-1,9.904004517E0,9.914187948E0
7.751291625E0,-2.674937439E-1,-3.849993896E-1,9.910291443E0,9.921373590E0
7.761330625E0,-2.794688416E-1,-3.745211792E-1,9.901310120E0,9.912331261E0
7.771369625E0,-2.671943665E-1,-3.724255371E-1,9.891131287E0,9.901745893E0
7.781407625E0,-2.704875183E-1,-3.867956543E-1,9.894723816E0,9.905974650E0
7.791446625E0,-2.644999695E-1,-3.857478333E-1,9.884544983E0,9.895604638E0
7.801484625E0,-2.773731995E-1,-3.948788452E-1,9.890532532E0,9.902297660E0
7.811523625E0,-2.797682190E-1,-3.926335144E-1,9.893077240E0,9.904817445E0
7.821561625E0,-2.722837830E-1,-3.885919189E-1,9.892328796E0,9.903701891E0
7.831600625E0,-2.679428101E-1,-3.770658875E-1,9.898316345E0,9.909118957E0
7.841638625E0,-2.721340942E-1,-3.725752258E-1,9.894125061E0,9.904876576E0
7.851677625E0,-2.621049500E-1,-3.830534363E-1,9.895172882E0,9.906052458E0
7.861716625E0,-2.722837830E-1,-3.731739807E-1,9.903705139E0,9.914472894E0
7.871754625E0,-2.739303589E-1,-3.790118408E-1,9.904303894E0,9.915337788E0
7.881793625E0,-2.577639771E-1,-3.737727356E-1,9.916129303E0,9.926518457E0
7.891831625E0,-2.668949890E-1,-3.752696228E-1,9.909992065E0,9.920685609E0
7.901870625E0,-2.802172852E-1,-3.709286499E-1,9.910141754E0,9.921039229E0
7.911908625E0,-2.661465454E-1,-3.776646423E-1,9.906998291E0,9.917765863E0
7.921947625E0,-2.766247559E-1,-3.781137085E-1,9.904902649E0,9.915976387E0
7.931985625E0,-2.764750671E-1,-3.791615295E-1,9.898166656E0,9.909283783E0
7.942024625E0,-2.685415649E-1,-3.920347595E-1,9.889933777E0,9.901343138E0
7.952063625E0,-2.703378296E-1,-3.998185730E-1,9.887538757E0,9.899311093E0
7.962101625E0,-2.812651062E-1,-3.950285339E-1,9.879455566E0,9.891349751E0
7.972140625E0,-2.665956116E-1,-3.932322693E-1,9.897867279E0,9.909262410E0
7.982178625E0,-2.853067017E-1,-3.902384949E-1,9.884245605E0,9.896059680E0
7.992217625E0,-2.700384521E-1,-3.851490784E-1,9.897717590E0,9.908888640E0
8.002255625E0,-2.773731995E-1,-3.838018799E-1,9.898765411E0,9.910085592E0
8.012294625E0,-2.764750671E-1,-3.855981445E-1,9.905950470E0,9.917307049E0
8.022332625E0,-2.773731995E-1,-3.746708679E-1,9.904752960E0,9.915717087E0
8.032371625E0,-2.725831604E-1,-3.769161987E-1,9.899214478E0,9.910136965E0
8.042409625E0,-2.851570129E-1,-3.802093506E-1,9.904453583E0,9.915849658E0
8.052448625E0,-2.725831604E-1,-3.893403625E-1,9.907746735E0,9.919139724E0
8.062487625E0,-2.613565063E-1,-3.875440979E-1,9.897118835E0,9.908151134E0
8.072525625E0,-2.812651062E-1,-3.902384949E-1,9.900561676E0,9.912240798E0
8.082564625E0,-2.775228882E-1,-3.852987671E-1,9.896220703E0,9.907606083E0
8.092602625E0,-2.761756897E-1,-3.839515686E-1,9.900411987E0,9.911702646E0
8.102641625E0,-2.686912537E-1,-3.863465881E-1,9.895172882E0,9.906356800E0
8.112679625E0,-2.686912537E-1,-3.902384949E-1,9.891430664E0,9.902771413E0
8.122718625E0,-2.814147949E-1,-3.826043701E-1,9.906998291E0,9.918376658E0
8.132756625E0,-2.896476746E-1,-3.905378723E-1,9.900861053E0,9.912793007E0
8.142795625E0,-2.818638611E-1,-3.869453430E-1,9.900861053E0,9.912427732E0
8.152834625E0,-2.912942505E-1,-3.700305176E-1,9.894274750E0,9.905475645E0
8.162872625E0,-2.766247559E-1,-3.806584167E-1,9.908794556E0,9.919961272E0
8.172911625E0,-2.896476746E-1,-3.785627747E-1,9.895921326E0,9.907394432E0
8.182949625E0,-2.776725769E-1,-3.799099731E-1,9.894125061E0,9.905308898E0
8.192988625E0,-2.872526550E-1,-3.824546814E-1,9.894424438E0,9.905979035E0
8.203026625E0,-2.805166626E-1,-3.713777161E-1,9.900411987E0,9.911345445E0
8.213065625E0,-2.968327332E-1,-3.790118408E-1,9.889035645E0,9.900746721E0
8.223103625E0,-2.868035889E-1,-3.833528137E-1,9.906698914E0,9.918260888E0
8.233142625E0,-3.209326172E-1,-4.284091187E-1,9.879156189E0,9.893647413E0
8.243181625E0,-2.787203979E-1,-3.797602844E-1,9.885293427E0,9.896510954E0
8.253219625E0,-3.430865479E-1,-4.117936707E-1,9.858499146E0,9.873058686E0
8.263258625E0,-3.197351074E-1,-4.370910645E-1,9.844129028E0,9.859013919E0
8.273296625E0,-3.501219177E-1,-4.195774841E-1,9.859397278E0,9.874530131E0
8.283335625E0,-3.348536682E-1,-4.113446045E-1,9.882449341E0,9.896672993E0
8.293373625E0,-3.074606323E-1,-3.751199341E-1,9.884694672E0,9.896587076E0
8.303412625E0,-3.212319946E-1,-3.845503235E-1,9.935139771E0,9.947767147E0
8.313450625E0,-2.866539001E-1,-3.394940186E-1,9.940528564E0,9.950453999E0
8.323489625E0,-3.002755737E-1,-2.972817993E-1,9.939031677E0,9.948009478E0
8.333528625E0,-3.125500488E-1,-3.189866638E-1,9.989925842E0,9.999902917E0
8.343566625E0,-3.885919189E-1,-3.159928894E-1,9.969418488E0,9.981991794E0
8.353605625E0,-4.370910645E-1,-3.709286499E-1,1.001672012E1,1.003311112E1
8.363643625E0,-4.553530884E-1,-2.993774414E-1,9.931696930E0,9.946636476E0
8.373682625E0,-4.836442566E-1,-3.156935120E-1,9.897268524E0,9.914106031E0
8.383720625E0,-5.971083069E-1,-4.806504822E-1,9.881251831E0,9.910938450E0
8.393759625E0,-7.453001404E-1,-4.724176025E-1,9.834848328E0,9.874355286E0
8.403797625E0,-6.583309937E-1,-6.489006042E-1,1.008961853E1,1.013187415E1
8.413836625E0,-5.468128967E-1,-3.617976379E-1,9.554181976E0,9.576653649E0
8.423875625E0,-4.873864746E-1,-7.354206848E-1,9.587712250E0,9.628219739E0
8.433913625E0,-5.466632080E-1,-5.150788879E-1,9.631571045E0,9.660812995E0
8.443952625E0,-4.278103638E-1,-5.511538696E-1,9.833650818E0,9.858371098E0
8.453990625E0,-5.194198608E-1,-4.435276794E-1,9.936636658E0,9.960083426E0
8.464029625E0,-5.936654663E-1,-3.460803223E-1,9.771679688E0,9.795812074E0
8.474067625E0,-6.477030945E-1,-2.767744446E-1,1.009845016E1,1.012298469E1
8.484106625E0,-8.976832581E-1,-2.528242493E-1,1.015129028E1,1.019403991E1
8.494144625E0,-8.149053955E-1,-1.835183716E-1,1.015548157E1,1.018977702E1
8.504183625E0,-1.033750305E0,-2.823129272E-1,1.010533585E1,1.016199551E1
8.514222625E0,-1.072519684E0,-2.597099304E-1,1.004366409E1,1.010410492E1
8.524260625E0,-1.103954315E0,-3.282673645E-1,1.004351440E1,1.010933510E1
8.534299625E0,-1.123713226E0,-4.650828552E-1,9.945168915E0,1.001925238E1
8.544337625E0,-1.116827545E0,-4.700225830E-1,9.761051788E0,9.835972601E0
8.554376625E0,-1.087189178E0,-6.026467896E-1,9.753118286E0,9.832013007E0
8.564414625E0,-1.125808868E0,-5.923182678E-1,9.689051514E0,9.772205778E0
8.574453625E0,-1.110690308E0,-6.319857788E-1,9.709259491E0,9.792995397E0
8.584491625E0,-1.156495056E0,-5.604345703E-1,9.700727234E0,9.785482951E0
8.594530625E0,-1.189576263E0,-5.327421570E-1,9.788295135E0,9.874696327E0
8.604569625E0,-1.252445526E0,-4.179309082E-1,9.935139771E0,1.002248913E1
8.614607625E0,-1.340013428E0,-3.896397400E-1,9.996063080E0,1.009300412E1
8.624646625E0,-1.426383820E0,-3.040177917E-1,1.008378067E1,1.018870111E1
8.634684625E0,-1.511556702E0,-2.326162720E-1,1.011431717E1,1.022928765E1
8.644723625E0,-1.591939545E0,-2.064207458E-1,1.013886612E1,1.026515890E1
8.654761625E0,-1.676214294E0,-2.456391907E-1,1.012868729E1,1.026938845E1
8.664800625E0,-1.720671844E0,-2.856060791E-1,1.000639160E1,1.015727106E1
8.674838625E0,-1.733844452E0,-3.951782227E-1,9.926158447E0,1.008419575E1
8.684877625E0,-1.720971222E0,-4.209246826E-1,9.801916809E0,9.960747596E0
8.694915625E0,-1.707349548E0,-5.263055420E-1,9.785001984E0,9.946773538E0
8.704954625E0,-1.683848419E0,-5.477110291E-1,9.714199219E0,9.874259432E0
8.714993625E0,-1.642684021E0,-5.129832458E-1,9.633516998E0,9.786021273E0
8.725031625E0,-1.641336823E0,-5.174739075E-1,9.708061981E0,9.859423575E0
8.735070625E0,-1.628613281E0,-4.108955383E-1,9.746831360E0,9.890497355E0
8.745108625E0,-1.656754761E0,-3.526666260E-1,9.871821442E0,1.001609049E1
8.755147625E0,-1.707948303E0,-2.701881409E-1,9.946067047E0,1.009526318E1
8.765185625E0,-1.755998383E0,-1.814227295E-1,9.994865570E0,1.014957055E1
8.775224625E0,-1.834884338E0,-1.228944397E-1,1.010264145E1,1.026865463E1
8.785262625E0,-1.914668427E0,-8.502319336E-2,1.008228378E1,1.026282760E1
8.795301625E0,-1.977986755E0,-6.930587769E-2,1.009051666E1,1.028278957E1
8.805340625E0,-2.022144928E0,-1.109193420E-1,1.003453308E1,1.023685632E1
8.815378625E0,-2.018851776E0,-1.088237000E-1,9.935888214E0,1.013950096E1
8.825417625E0,-1.995650024E0,-1.637594604E-1,9.880204010E0,1.008106480E1
8.835455625E0,-1.939516754E0,-1.727407837E-1,9.781708832E0,9.973634858E0
8.845494625E0,-1.893412628E0,-2.240840149E-1,9.752968597E0,9.937586301E0
8.855532625E0,-1.876048737E0,-2.053729248E-1,9.743538208E0,9.924629651E0
8.865571625E0,-1.835632782E0,-1.519340515E-1,9.713151398E0,9.886250135E0
8.875609625E0,-1.892065430E0,-1.169068909E-1,9.749974823E0,9.932551931E0
8.885648625E0,-1.948049011E0,-5.149291992E-2,9.844727783E0,1.003574669E1
8.895687625E0,-1.987716522E0,6.376739502E-2,9.906249847E0,1.010390367E1
8.905725625E0,-2.065554657E0,1.031355286E-1,9.979148254E0,1.019119978E1
8.915764625E0,-2.095342712E0,2.377056885E-1,9.974358215E0,1.019484119E1
8.925802625E0,-2.161505127E0,2.862048340E-1,1.001926483E1,1.025376445E1
8.935841625E0,-2.221829681E0,3.294648743E-1,1.011686188E1,1.036320262E1
8.945879625E0,-2.221081238E0,3.911366272E-1,1.008542725E1,1.033450688E1
8.955918625E0,-2.222727814E0,4.300556946E-1,1.000983444E1,1.026266303E1
8.965956625E0,-2.215991821E0,3.749702454E-1,9.942624207E0,1.019347824E1
8.975995625E0,-2.186353455E0,4.212240601E-1,9.949060822E0,1.019516466E1
8.986034625E0,-2.102677460E0,3.878434753E-1,9.804760895E0,1.003518865E1
8.996072625E0,-2.091301117E0,3.309617615E-1,9.774374084E0,1.000107318E1
9.006111625E0,-2.055675201E0,4.257147217E-1,9.728120270E0,9.952052931E0
9.016149625E0,-2.071841583E0,4.219725037E-1,9.743687897E0,9.970458473E0
9.026188625E0,-2.103276215E0,5.212161255E-1,9.868228912E0,1.010333504E1
9.036226625E0,-2.076931000E0,7.170089722E-1,9.888287201E0,1.012946040E1
9.046265625E0,-2.183958435E0,7.408094788E-1,1.000279907E1,1.026520640E1
9.056303625E0,-2.224973145E0,9.113049316E-1,1.002165985E1,1.030604911E1
9.066342625E0,-2.291584625E0,1.029858398E0,1.018362305E1,1.048895356E1
9.076381625E0,-2.423011322E0,1.040785675E0,1.034738251E1,1.067813389E1
9.086419625E0,-2.433040466E0,1.137334900E0,9.979297943E0,1.033438939E1
9.096458625E0,-2.474803619E0,1.142873383E0,9.924661560E0,1.029221646E1
9.106496625E0,-2.533182220E0,1.151854706E0,9.971364441E0,1.035238573E1
9.116535625E0,-2.454895020E0,1.162482605E0,9.906848602E0,1.027246439E1
9.126573625E0,-2.362686768E0,1.159488831E0,9.874964905E0,1.021966903E1
9.136612625E0,-2.275717621E0,1.224453735E0,9.719737701E0,1.005740914E1
9.146650625E0,-2.313439178E0,1.259331207E0,9.789193268E0,1.013736755E1
9.156689625E0,-2.260898438E0,1.318158875E0,9.861941986E0,1.020328890E1
9.166728625E0,-2.289488983E0,1.426234131E0,9.918973389E0,1.027919922E1
9.176766625E0,-2.262994080E0,1.551523590E0,9.818681946E0,1.019484589E1
9.186805625E0,-2.314037933E0,1.710343323E0,9.850715332E0,1.026238951E1
9.196843625E0,-2.381547546E0,1.851799164E0,1.013706985E1,1.057644147E1
9.206882625E0,-2.383792877E0,2.019450531E0,1.020996826E1,1.067727029E1
9.216920625E0,-2.297871552E0,2.137255554E0,1.011686188E1,1.059240148E1
9.226959625E0,-2.207609253E0,2.188449097E0,1.006521927E1,1.053430050E1
9.236997625E0,-2.009720764E0,2.272125092E0,1.013632141E1,1.058047928E1
9.247036625E0,-1.799707489E0,2.271825714E0,1.021655457E1,1.061970462E1
9.257075625E0,-1.558708649E0,2.412682800E0,1.000624191E1,1.041035485E1
9.267113625E0,-1.490450592E0,2.428699493E0,1.000908600E1,1.040681636E1
9.277152625E0,-1.519340515E0,2.502046967E0,1.010294083E1,1.051846224E1
9.287190625E0,-1.590292969E0,2.595153351E0,1.019455032E1,1.063920622E1
9.297229625E0,-1.673819275E0,2.568957825E0,1.024319916E1,1.069225628E1
9.307267625E0,-1.694176941E0,2.590213623E0,9.933942261E0,1.040493397E1
9.317306625E0,-1.841770020E0,2.511477356E0,9.947114868E0,1.042327825E1
9.327344625E0,-1.826950836E0,2.505639496E0,9.901759186E0,1.037597290E1
9.337383625E0,-1.767225037E0,2.448458405E0,9.663604431E0,1.012439052E1
9.347422625E0,-1.709445190E0,2.432741089E0,9.616003418E0,1.006518523E1
9.357460625E0,-1.481918335E0,2.537972260E0,9.579329681E0,1.002002706E1
9.367499625E0,-1.456471252E0,2.560126190E0,9.775721283E0,1.020981299E1
9.377537625E0,-1.381327515E0,2.758613434E0,9.792037354E0,1.026654807E1
9.387576625E0,-1.254092102E0,2.923869781E0,9.991422729E0,1.048571837E1
9.397614625E0,-1.267115021E0,3.090623016E0,1.013901581E1,1.067507249E1
9.407653333E0,-1.312770081E0,3.247496796E0,1.037806870E1,1.095326027E1
9.417691333E0,-1.400337982E0,3.414848785E0,1.037687119E1,1.101370030E1
9.427730333E0,-1.577270050E0,3.485651550E0,1.046863037E1,1.114584090E1
9.437769333E0,-1.658700714E0,3.507506104E0,1.026789780E1,1.097650273E1
9.447807333E0,-1.765877838E0,3.475472717E0,1.032388138E1,1.103538680E1
9.457846333E0,-1.863923950E0,3.378474426E0,1.012000534E1,1.083064218E1
9.467884333E0,-1.872007141E0,3.286715240E0,9.791438599E0,1.049662696E1
9.477923333E0,-1.924098816E0,3.283721466E0,9.852062531E0,1.056163430E1
9.487961333E0,-1.800904999E0,3.315605164E0,9.667346649E0,1.037757619E1
9.498000333E0,-1.730401611E0,3.360062714E0,9.759554901E0,1.046581211E1
9.508039333E0,-1.605860596E0,3.503464508E0,9.787696381E0,1.051912792E1
9.518077333E0,-1.424138489E0,3.661535797E0,1.001971390E1,1.076241987E1
9.528116333E0,-1.357077942E0,3.780987396E0,1.007569748E1,1.084699064E1
9.538154333E0,-1.136586456E0,3.990401917E0,1.014994308E1,1.096523966E1
9.548193333E0,-9.807604980E-1,4.278253326E0,1.064735870E1,1.151657892E1
9.558231333E0,-9.027726746E-1,4.458029480E0,1.078701828E1,1.170678388E1
9.568270333E0,-8.066725159E-1,4.482728119E0,1.048569489E1,1.143220754E1
9.578308333E0,-7.396119690E-1,4.607568512E0,1.061712158E1,1.159741282E1
9.588347333E0,-6.596781921E-1,4.693040771E0,1.079854431E1,1.179272514E1
9.598386333E0,-6.255491638E-1,4.403093719E0,1.038884628E1,1.130073773E1
9.608424333E0,-7.277865601E-1,4.067491608E0,1.004231689E1,1.085920300E1
9.618463333E0,-7.129673767E-1,4.179758148E0,1.020457947E1,1.105043632E1
9.628501333E0,-5.975573730E-1,3.767216034E0,1.010069550E1,1.079689960E1
9.638540333E0,-5.246589661E-1,3.547472992E0,8.946745148E0,9.638676278E0
9.648578333E0,-7.195536804E-1,2.903212738E0,9.183552704E0,9.658366423E0
9.658617333E0,-4.896318054E-1,3.569177856E0,8.764573975E0,9.476102935E0
9.668655333E0,-3.285667419E-1,3.092119904E0,8.978628845E0,9.501838640E0
9.678694333E0,-2.303709412E-1,3.396886139E0,9.520202637E0,1.011069555E1
9.688733333E0,-2.814147949E-1,3.762126617E0,9.477092285E0,1.020039554E1
9.698771333E0,-3.844006348E-1,3.967649231E0,9.725575562E0,1.051079561E1
9.708810333E0,-3.002755737E-1,4.386927338E0,1.023017624E1,1.113516065E1
9.718848333E0,-3.662882996E-1,4.696782990E0,1.118279526E1,1.213461360E1
9.728887333E0,-3.543132019E-1,4.842579803E0,1.125883713E1,1.226122059E1
9.738925333E0,-3.571572876E-1,4.834197235E0,1.054916290E1,1.160955909E1
9.748964333E0,-4.707710266E-1,4.970563660E0,1.105720642E1,1.213218621E1
9.759002333E0,-4.881349182E-1,4.881199493E0,1.091590027E1,1.196750863E1
9.769041333E0,-4.881349182E-1,4.554279327E0,1.069181625E1,1.163162373E1
9.779080333E0,-5.153782654E-1,4.392615509E0,1.028915359E1,1.119943603E1
9.789118333E0,-2.851570129E-1,4.055516510E0,9.809700623E0,1.061879254E1
9.799157333E0,-2.164498901E-1,3.464395752E0,9.534273376E0,1.014648990E1
9.809195333E0,-1.848655701E-1,3.437751160E0,9.336983643E0,9.951460790E0
9.819234333E0,-6.990463257E-2,3.472928009E0,8.712033234E0,9.378999876E0
9.829272333E0,-7.723937988E-2,3.141666870E0,9.473499756E0,9.981143936E0
9.839311333E0,-1.520837402E-1,3.514691162E0,9.090895386E0,9.747849114E0
9.849349333E0,-3.165916443E-1,3.578608246E0,9.457632751E0,1.011698989E1
9.859388333E0,-5.592370605E-1,4.096082153E0,9.989776154E0,1.081139504E1
9.869427333E0,-6.273454285E-1,4.437971191E0,1.042911255E1,1.135145538E1
9.879465333E0,-6.885681152E-1,4.573589172E0,1.080722626E1,1.175533850E1
9.889504333E0,-6.342311096E-1,4.715194702E0,1.051563263E1,1.154183000E1
9.899542333E0,-5.126838684E-1,4.804109802E0,1.093506042E1,1.195482590E1
9.909581333E0,-4.601431274E-1,4.901257782E0,1.071726334E1,1.179380316E1
9.919619333E0,-3.406915283E-1,4.905149689E0,1.089584198E1,1.195390884E1
9.929658333E0,-2.601589966E-1,4.679419098E0,1.073537567E1,1.171379258E1
9.939697333E0,2.993774414E-3,4.460574188E0,1.021640488E1,1.114771993E1
9.949735333E0,9.385482788E-2,4.206103363E0,9.981543274E0,1.083195829E1
9.959774333E0,8.816665649E-2,3.918251953E0,9.867031403E0,1.061691012E1
9.969812333E0,9.026229858E-2,3.751199341E0,9.367969208E0,1.009150588E1
9.979851333E0,1.507365417E-1,3.494932251E0,9.367370453E0,9.999245079E0
9.989889333E0,8.442443848E-2,3.513793030E0,9.246871033E0,9.892345164E0
9.999928333E0,-2.670446777E-1,3.550317078E0,9.379345551E0,1.003235701E1
1.000996633E1,-4.608915710E-1,3.824846191E0,9.701026611E0,1.043799726E1
1.002000533E1,-6.318360901E-1,4.023483124E0,9.982291718E0,1.078117717E1
1.003004433E1,-8.328680420E-1,4.229754181E0,1.006656647E1,1.095081047E1
1.004008233E1,-8.222401428E-1,4.580624542E0,1.042626846E1,1.141776134E1
1.005012133E1,-8.901988220E-1,4.536466370E0,1.053509216E1,1.150478804E1
1.006015933E1,-8.264314270E-1,4.525389404E0,1.053778656E1,1.149813392E1
1.007019833E1,-5.074447632E-1,4.801565094E0,1.039782761E1,1.146417666E1
1.008023633E1,-2.176473999E-1,4.790188751E0,1.062819855E1,1.165984061E1
1.009027533E1,-9.834548950E-2,4.694986725E0,1.059436890E1,1.158849535E1
1.010031333E1,2.664459229E-1,4.509223022E0,1.014709900E1,1.110710150E1
1.011035233E1,3.664379883E-1,4.492457886E0,1.029993118E1,1.124299947E1
1.012039133E1,3.248245239E-1,4.240382080E0,1.000145187E1,1.086809048E1
1.013042933E1,3.456312561E-1,4.164639587E0,9.829309845E0,1.068077787E1
1.014046833E1,1.808239746E-1,3.806584167E0,9.739346924E0,1.045837745E1
1.015050633E1,2.619552612E-2,3.931424561E0,9.701325989E0,1.046768892E1
1.016054533E1,-5.020559692E-1,3.761228485E0,9.678573303E0,1.039584922E1
1.017058333E1,-6.255491638E-1,3.982917480E0,9.625284119E0,1.043556600E1
1.018062233E1,-7.699987793E-1,4.038451996E0,9.841734009E0,1.066591398E1
1.019066133E1,-9.220825195E-1,4.126618652E0,1.027942383E1,1.111511457E1
1.020069933E1,-8.415499878E-1,4.413721619E0,9.971963196E0,1.093751319E1
1.021073833E1,-8.379574585E-1,4.485871582E0,1.027119095E1,1.123933183E1
1.022077633E1,-8.183482361E-1,4.669240265E0,1.016296600E1,1.121415964E1
1.023081533E1,-5.836363220E-1,4.555476837E0,1.046578629E1,1.142915934E1
1.024085333E1,-2.549198914E-1,4.501289520E0,1.030801437E1,1.125085560E1
1.025089233E1,1.083746338E-1,4.657714233E0,1.015997223E1,1.117725738E1
1.026093033E1,1.011895752E-1,4.567152557E0,1.023436752E1,1.120764919E1
1.027096933E1,2.974314880E-1,4.453688507E0,1.009171417E1,1.103478599E1
1.028100833E1,3.969744873E-1,4.391417999E0,1.007405090E1,1.099675599E1
1.029104633E1,3.299139404E-1,4.285139008E0,1.002420456E1,1.090669228E1
1.030108533E1,-2.799179077E-2,4.439168701E0,1.009231293E1,1.102550600E1
1.031112333E1,-2.198927307E-1,4.189038849E0,1.021595581E1,1.104364760E1
1.032116233E1,-5.806425476E-1,4.262536011E0,9.915829926E0,1.080879467E1
1.033120033E1,-6.448590088E-1,4.215533752E0,9.989177399E0,1.086141027E1
1.034123933E1,-7.646099854E-1,4.306993561E0,1.013677048E1,1.104033232E1
1.035127733E1,-8.937913513E-1,4.233197021E0,9.999805298E0,1.089563793E1
1.036131633E1,-8.945397949E-1,4.260739746E0,9.933942261E0,1.084607364E1
1.037135533E1,-8.556207275E-1,4.325255585E0,9.889933777E0,1.082823683E1
1.038139333E1,-6.956034851E-1,4.416266327E0,1.000130219E1,1.095505901E1
1.039143233E1,-5.200186157E-1,4.277504883E0,1.001836670E1,1.090573880E1
1.040147033E1,-3.698808289E-1,4.450095978E0,1.001237915E1,1.096302432E1
1.041150913E1,-2.652484131E-1,4.371659088E0,9.974058838E0,1.089328277E1
1.042154713E1,2.514770508E-2,4.573289795E0,1.000743942E1,1.100292942E1
1.043158612E1,1.649569702E-1,4.547543335E0,1.025143204E1,1.121602514E1
1.044162413E1,1.667532349E-1,4.580325165E0,1.037507492E1,1.134237034E1
1.045166313E1,1.152603149E-2,4.636458435E0,1.031250504E1,1.130684040E1
1.046170212E1,-1.559756470E-1,4.600682831E0,1.020592667E1,1.119605064E1
1.047174012E1,-3.426374817E-1,4.581372986E0,1.047117508E1,1.143467911E1
1.048177913E1,-4.692741394E-1,4.589456177E0,1.027358597E1,1.126187795E1
1.049181713E1,-7.265890503E-1,4.414769440E0,1.027598099E1,1.120776098E1
1.050185612E1,-7.081773376E-1,4.486470337E0,1.026280838E1,1.122297497E1
1.051189413E1,-7.632627869E-1,4.288432159E0,9.780211945E0,1.070634233E1
1.052193313E1,-9.277706909E-1,4.111949158E0,9.852810974E0,1.071665845E1
1.053197212E1,-9.877958679E-1,4.161645813E0,9.688003693E0,1.059020548E1
1.054201013E1,-6.791377258E-1,4.166585541E0,9.780211945E0,1.065242737E1
1.055204913E1,-8.244854736E-1,3.907624054E0,9.540709991E0,1.034284531E1
1.056208713E1,2.350112915E-2,4.130660248E0,9.449250183E0,1.031267353E1
1.057212613E1,-1.065783691E-1,4.105811920E0,9.569749603E0,1.041389255E1
1.058216413E1,2.987786865E-1,4.297114105E0,9.884844360E0,1.078260666E1
1.059220313E1,3.667373657E-1,4.738097076E0,1.038420593E1,1.141997343E1
1.060224112E1,4.930746460E-1,4.628375244E0,1.064795746E1,1.162084240E1
1.061228013E1,2.703378296E-1,4.887785797E0,1.052760773E1,1.161008428E1
1.062231913E1,2.929408264E-1,4.885839844E0,1.075423645E1,1.181570340E1
1.063235712E1,1.043330383E-1,4.910089417E0,1.079315552E1,1.185799601E1
1.064239613E1,-5.298980713E-2,4.640200653E0,1.073462723E1,1.169472068E1
1.065243413E1,-2.914439392E-1,4.479884033E0,1.035890854E1,1.128987540E1
1.066247313E1,-3.546125793E-1,3.936513977E0,9.947264557E0,1.070373601E1
1.067251112E1,-3.465293884E-1,4.122577057E0,9.631870422E0,1.048277883E1
1.068255013E1,-2.984793091E-1,3.491339722E0,9.914632416E0,1.051563022E1
1.069258913E1,-7.035369873E-2,3.808979187E0,9.424252167E0,1.016512671E1
1.070262712E1,2.874023438E-2,3.453618164E0,9.266330566E0,9.889043765E0
1.071266613E1,2.236349487E-1,3.537144470E0,9.487121429E0,1.012753063E1
1.072270413E1,3.677851868E-1,3.820954285E0,9.709708557E0,1.044094813E1
1.073274312E1,4.255650330E-1,3.821852417E0,1.019904099E1,1.089991278E1
1.074278112E1,3.204835510E-1,4.136947174E0,1.006806335E1,1.088957948E1
1.075282013E1,2.555186462E-1,4.264781342E0,1.040561142E1,1.124857318E1
1.076285813E1,5.733078003E-2,4.235891418E0,1.075214081E1,1.155658232E1
1.077289712E1,4.790039062E-3,4.364024963E0,1.070678513E1,1.156200608E1
1.078293613E1,-2.432441711E-1,4.185296631E0,1.056158707E1,1.136323004E1
1.079297413E1,-3.055146790E-1,4.029021606E0,1.048494644E1,1.123656781E1
1.080301312E1,-3.611988831E-1,3.814218292E0,1.006012985E1,1.076498669E1
1.081305113E1,-3.763174438E-1,3.502716064E0,9.973160706E0,1.057707753E1
1.082309013E1,-1.157093811E-1,3.505709839E0,9.750872955E0,1.036257273E1
1.083312813E1,-7.155120850E-2,3.218307495E0,9.590556335E0,1.011639232E1
1.084316713E1,7.993377686E-2,3.208727417E0,9.536967773E0,1.006260778E1
1.085320613E1,2.719844055E-1,3.155438232E0,9.466913452E0,9.982645755E0
1.086324413E1,3.445834351E-1,3.190016327E0,9.707014160E0,1.022355446E1
1.087328312E1,3.881428528E-1,3.326682129E0,9.840536499E0,1.039488468E1
1.088332113E1,2.525248718E-1,3.445984039E0,9.981692963E0,1.056280120E1
1.089336013E1,1.462458801E-1,3.550766144E0,1.028466293E1,1.088134274E1
1.090339813E1,-8.232879639E-3,3.713777161E0,1.039408539E1,1.103762745E1
1.091343713E1,-9.744735718E-2,3.630699921E0,1.056218582E1,1.116920979E1
1.092347513E1,-2.228865051E-1,3.768862610E0,1.043330383E1,1.109539691E1
1.093351413E1,-2.953358459E-1,3.534599762E0,1.044258453E1,1.102851715E1
1.094355313E1,-3.520678711E-1,3.457659760E0,1.025068359E1,1.082385684E1
1.095359113E1,-3.628454590E-1,3.286116486E0,1.011955627E1,1.064592117E1
1.096363013E1,-2.405497742E-1,3.184028778E0,1.011207184E1,1.060423973E1
1.097366812E1,-2.272274780E-1,3.044219513E0,9.824669495E0,1.028800444E1
1.098370713E1,-6.556365967E-2,2.944826202E0,9.742490387E0,1.017803610E1
1.099374513E1,1.511856079E-2,2.887794800E0,9.645641785E0,1.006866390E1
1.100378412E1,2.752775574E-1,2.822380829E0,9.741592255E0,1.014594653E1
1.101382313E1,2.685415649E-1,2.803520050E0,9.824819183E0,1.022051424E1
1.102386113E1,3.661386108E-1,2.845432892E0,9.808503113E0,1.021945591E1
1.103390013E1,2.686912537E-1,2.890040131E0,9.801467743E0,1.022219628E1
1.104393812E1,2.374063110E-1,2.890938263E0,1.006596771E1,1.047557119E1
1.105397713E1,1.233435059E-1,3.010689240E0,1.006117767E1,1.050270249E1
1.106401513E1,4.640350342E-3,2.894081726E0,1.035726196E1,1.075400418E1
1.107405412E1,-1.507365417E-1,3.040028229E0,1.017374359E1,1.061930091E1
1.108409213E1,-2.237846375E-1,2.878663788E0,1.019484970E1,1.059583622E1
1.109413113E1,-3.441343689E-1,2.924169159E0,1.019949005E1,1.061596868E1
1.110417012E1,-3.281176758E-1,2.834355927E0,1.012269974E1,1.051714242E1
1.111420813E1,-3.281176758E-1,2.780917053E0,1.025831772E1,1.063363735E1
1.112424713E1,-3.109034729E-1,2.738255768E0,9.900861053E0,1.027724453E1
1.113428513E1,-1.445993042E-1,2.618504791E0,1.004650818E1,1.038314995E1
1.114432412E1,-1.713935852E-1,2.568059692E0,9.853409729E0,1.018400656E1
1.115436213E1,1.740879822E-1,2.542013855E0,9.954599304E0,1.027551402E1
1.116440113E1,1.013392639E-1,2.475402374E0,9.865983582E0,1.017229171E1
1.117444012E1,3.412902832E-1,2.451302490E0,9.964478760E0,1.026723916E1
1.118447813E1,3.266207886E-1,2.469564514E0,9.854158173E0,1.016414597E1
1.119451713E1,3.719764709E-1,2.378553772E0,1.003737717E1,1.032205527E1
1.120455513E1,3.911366272E-1,2.507735138E0,9.957593079E0,1.027596143E1
1.121459413E1,3.372486877E-1,2.343975677E0,1.001716919E1,1.029328117E1
1.122463213E1,1.839674377E-1,2.368075562E0,1.009380981E1,1.036950445E1
1.123467113E1,1.817221069E-1,2.283800812E0,9.977351990E0,1.023700746E1
1.124470912E1,2.529739380E-2,2.283351746E0,9.936187592E0,1.019520274E1
1.125474813E1,-4.790039062E-3,2.202819214E0,1.007988876E1,1.031778043E1
1.126478713E1,-1.073268127E-1,2.260748749E0,1.005938141E1,1.031085148E1
1.127482512E1,-1.787283325E-1,2.146536255E0,1.005309448E1,1.028125821E1
1.128486413E1,-1.236428833E-1,2.251168671E0,1.003453308E1,1.028469261E1
1.129490213E1,-1.246907043E-1,2.176773376E0,1.012838791E1,1.036041176E1
1.130494113E1,-7.304809570E-2,2.205064545E0,1.016416351E1,1.040085889E1
1.131497912E1,-3.472778320E-2,2.124831390E0,9.925859070E0,1.015080257E1
1.132501813E1,7.604187012E-2,2.080972595E0,1.005563919E1,1.026898772E1
1.133505713E1,1.272354126E-1,2.039359131E0,9.989776154E0,1.019660738E1
1.134509512E1,2.763253784E-1,2.009122009E0,1.005309448E1,1.025561483E1
1.135513413E1,2.627037048E-1,1.918260956E0,9.954000549E0,1.014055547E1
1.136517213E1,4.168830872E-1,1.913470917E0,9.838141479E0,1.003116096E1
1.137521112E1,4.230203247E-1,1.774859161E0,9.955048370E0,1.012087246E1
1.138524912E1,5.176235962E-1,1.819167023E0,9.926906891E0,1.010548283E1
1.139528813E1,4.749623108E-1,1.748813324E0,9.950557709E0,1.011422444E1
1.140532633E1,4.125421143E-1,1.641785889E0,9.863139496E0,1.000735593E1
1.141536533E1,3.692820740E-1,1.735041962E0,9.874665527E0,1.003273438E1
1.142540433E1,2.650987244E-1,1.605710907E0,1.014440460E1,1.027411941E1
1.143544233E1,1.091230774E-1,1.704655151E0,9.982890472E0,1.012797409E1
1.144548133E1,2.095642090E-2,1.634451141E0,1.000025436E1,1.013296388E1
1.145551933E1,-2.260299683E-1,1.698667603E0,1.001028351E1,1.015590159E1
1.146555833E1,-2.213896179E-1,1.588945770E0,1.014230896E1,1.026840752E1
1.147559633E1,-1.621128845E-1,1.675765228E0,1.013632141E1,1.027518766E1
1.148563533E1,-2.225871277E-1,1.538949738E0,1.004007156E1,1.015977108E1
1.149567433E1,-6.167175293E-2,1.531016235E0,9.887389069E0,1.000541237E1
1.150571233E1,9.116043091E-2,1.404379578E0,9.865235138E0,9.965111969E0
1.151575133E1,3.418890381E-1,1.414857788E0,9.939181366E0,1.004519969E1
1.152578933E1,3.375480652E-1,1.366059265E0,9.836494904E0,9.936633665E0
1.153582833E1,3.185375977E-1,1.316512299E0,9.906998291E0,9.999164264E0
1.154586633E1,4.757107544E-1,1.392404480E0,9.843829651E0,9.953194118E0
1.155590533E1,3.858975220E-1,1.312919769E0,1.004635849E1,1.013913182E1
1.156594433E1,4.174818420E-1,1.366208954E0,1.003258713E1,1.013378619E1
1.157598233E1,3.552113342E-1,1.400787048E0,1.002151016E1,1.012516891E1
1.158602133E1,2.887495422E-1,1.307530975E0,1.011955627E1,1.020776336E1
1.159605933E1,1.652563477E-1,1.336271210E0,1.004875351E1,1.013855895E1
1.160609833E1,1.453477478E-1,1.264869690E0,1.005294479E1,1.013324826E1
1.161613633E1,3.278182983E-2,1.250050507E0,1.011356873E1,1.019058258E1
1.162617533E1,-2.359094238E-1,1.159039764E0,1.001148102E1,1.008110999E1
1.163621333E1,-2.477348328E-1,1.135688324E0,9.896220703E0,9.964253345E0
1.164625233E1,-2.573149109E-1,1.119521942E0,9.914333038E0,9.980658292E0
1.165629133E1,-2.182461548E-1,1.046623535E0,9.974208527E0,1.003134527E1
1.166632933E1,-2.390528870E-1,1.076261902E0,9.854158173E0,9.915640133E0
1.167636833E1,-5.433700562E-2,1.069076843E0,9.970017242E0,1.002731877E1
1.168640633E1,1.526824951E-2,1.129700775E0,9.958940277E0,1.002282138E1
1.169644533E1,3.742218018E-2,1.100361786E0,1.005294479E1,1.011305570E1
1.170648333E1,-1.594184875E-1,1.111289062E0,1.006417145E1,1.012659491E1
1.171652233E1,-9.729766846E-2,1.071322174E0,9.910141754E0,9.968355312E0
1.172656133E1,-1.038839722E-1,9.160949707E-1,9.754465485E0,9.797939516E0
1.173659933E1,2.230361938E-2,7.604187012E-1,9.823022919E0,9.852436923E0
1.174663833E1,1.493893433E-1,9.054670715E-1,9.641001434E0,9.684580345E0
1.175667633E1,1.133143616E-1,6.932084656E-1,9.673783264E0,9.699250526E0
1.176671533E1,2.564167786E-1,8.571176147E-1,9.713301086E0,9.754415316E0
1.177675333E1,1.706451416E-1,8.357121277E-1,9.905501404E0,9.942157341E0
1.178679233E1,-2.814147949E-2,9.747729492E-1,1.005474106E1,1.010192021E1
1.179683133E1,-8.906478882E-2,1.138981476E0,1.003408401E1,1.009891347E1
1.180686933E1,-3.504212952E-1,1.024768982E0,1.022568558E1,1.028287859E1
1.181690833E1,-4.722679138E-1,1.176852722E0,1.012449600E1,1.020359930E1
1.182694633E1,-4.641847229E-1,1.145418091E0,1.031475037E1,1.038852854E1
1.183698533E1,-5.643264771E-1,1.145118713E0,1.031115784E1,1.038988629E1
1.184702333E1,-4.065545654E-1,1.088237000E0,1.004605911E1,1.011300401E1
1.185706233E1,-4.120930481E-1,8.801696777E-1,9.974657593E0,1.002189171E1
1.186710033E1,-2.541714478E-1,8.273295593E-1,9.688003693E0,9.726586908E0
1.187713933E1,-1.335223389E-1,7.135661316E-1,9.742490387E0,9.769499669E0
1.188717833E1,-8.921447754E-2,5.911207581E-1,9.703271942E0,9.721670091E0
1.189721633E1,1.002914429E-2,7.021897888E-1,9.443861389E0,9.469936062E0
1.190725533E1,-3.817062378E-2,5.159770203E-1,9.586814117E0,9.600765293E0
1.191729333E1,-4.849914551E-2,7.677534485E-1,9.739496613E0,9.769830694E0
1.192733233E1,-7.005432129E-2,8.538244629E-1,9.985435181E0,1.002211752E1
1.193737033E1,-3.026705933E-1,9.578581238E-1,1.002734802E1,1.007753988E1
1.194740933E1,-2.733316040E-1,1.106049957E0,1.009889923E1,1.016296327E1
1.195744833E1,-3.948788452E-1,1.125060425E0,1.025921585E1,1.032827189E1
1.196748633E1,-4.275109863E-1,1.178199921E0,1.032118698E1,1.039701021E1
1.197752533E1,-3.246748352E-1,1.228046265E0,1.038824753E1,1.046561981E1
1.198756333E1,-3.646417236E-1,1.110690308E0,1.017194733E1,1.023890175E1
1.199760233E1,-1.887574768E-1,1.060095520E0,9.982291718E0,1.004019820E1
1.200764033E1,-1.459465027E-1,9.120533752E-1,1.000264938E1,1.004520465E1
1.201767933E1,-2.170486450E-2,7.750881958E-1,9.944570160E0,9.974753555E0
1.202771833E1,2.739303589E-2,7.414082336E-1,9.645342407E0,9.673834126E0
1.203775633E1,5.284011841E-2,6.309379578E-1,9.618248749E0,9.639065503E0
1.204779533E1,1.182540894E-2,6.394702148E-1,9.634415131E0,9.655621000E0
1.205783333E1,-5.987548828E-3,6.738986206E-1,9.764794006E0,9.788022128E0
1.206787233E1,-1.719923401E-1,7.458988953E-1,9.829309845E0,9.859070877E0
1.207791033E1,-2.086660767E-1,8.324189758E-1,9.855804749E0,9.893096084E0
1.208794933E1,-3.445834351E-1,9.419911194E-1,9.929301910E0,9.979835742E0
1.209798733E1,-3.972738647E-1,9.755213928E-1,1.018721558E1,1.024152477E1
1.210802633E1,-4.032614136E-1,1.061891785E0,1.021026764E1,1.027325650E1
1.211806533E1,-4.037104797E-1,1.037193146E0,1.009336075E1,1.015454002E1
1.212810333E1,-2.963836670E-1,1.077908478E0,1.012883698E1,1.019034192E1
1.213814233E1,-2.231858826E-1,9.877958679E-1,1.008527756E1,1.013599408E1
1.214818033E1,-9.789642334E-2,9.503736877E-1,1.001911514E1,1.006456468E1
1.215821933E1,1.796264648E-3,8.928932190E-1,9.882898407E0,9.923151841E0
1.216825733E1,1.255888367E-1,8.105644226E-1,9.860445099E0,9.894501745E0
1.217829633E1,1.056802368E-1,8.000862122E-1,9.811047821E0,9.844184355E0
1.218833533E1,1.865121460E-1,7.711962891E-1,9.817185059E0,9.849195549E0
1.219837333E1,3.562591553E-2,7.692503357E-1,9.785001984E0,9.815257465E0
1.220841233E1,1.616638184E-2,7.976911926E-1,9.846074982E0,9.878348300E0
1.221845033E1,-1.468446350E-1,8.722361755E-1,9.936337280E0,9.975628193E0
1.222848933E1,-2.125579834E-1,8.749305725E-1,1.009575577E1,1.013582601E1
1.223852733E1,-3.376977539E-1,1.007405090E0,9.952952728E0,1.000950412E1
1.224856633E1,-3.245251465E-1,9.418414307E-1,1.014320709E1,1.019200824E1
1.225860533E1,-3.999682617E-1,1.010548553E0,1.002794678E1,1.008666940E1
1.226864333E1,-2.767744446E-1,9.530680847E-1,1.003662872E1,1.008557678E1
1.227868233E1,-2.588117981E-1,9.418414307E-1,9.991273041E0,1.003890362E1
1.228872033E1,-1.016386414E-1,9.032217407E-1,9.871072998E0,9.912831183E0
1.229875933E1,-1.556762695E-2,8.533753967E-1,9.911488953E0,9.948170946E0
1.230879733E1,6.376739502E-2,7.685018921E-1,9.888586578E0,9.918609074E0
1.231883633E1,1.389111328E-1,8.340655518E-1,9.735155640E0,9.771807252E0
1.232887533E1,1.496887207E-1,7.640112305E-1,9.731114044E0,9.762207763E0
1.233891333E1,1.872605896E-1,8.400531006E-1,9.928852844E0,9.966086220E0
1.234895233E1,3.445834351E-1,1.340761871E0,1.002106110E1,1.011622685E1
1.235899033E1,7.334747314E-3,5.948629761E-1,1.061787003E1,1.063452301E1
1.236902933E1,2.200424194E-1,1.552721100E0,9.519603882E0,9.647912704E0
1.237906733E1,-1.363664246E-1,5.912704468E-1,1.056338333E1,1.058079694E1
1.238910633E1,-2.290237427E-1,1.065783691E0,9.691895599E0,9.753009128E0
1.239914433E1,-7.170089722E-2,9.078620911E-1,1.001402573E1,1.005535011E1
1.240918321E1,-4.535568237E-2,7.461982727E-1,1.011835876E1,1.014593776E1
1.241922221E1,-5.538482666E-2,1.101259918E0,9.531578979E0,9.595146624E0
1.242926021E1,1.037342834E-1,4.915777588E-1,1.026655060E1,1.027883606E1
1.243929921E1,2.529739380E-2,9.957293701E-1,9.477541351E0,9.529738034E0
1.244933721E1,2.794688416E-1,5.974076843E-1,9.846374359E0,9.868438924E0
1.245937621E1,1.456471252E-1,7.923023987E-1,9.877958679E0,9.910752940E0
1.246941421E1,3.674858093E-1,7.750881958E-1,9.618697815E0,9.656870880E0
1.247945321E1,3.776646423E-1,9.970765686E-1,1.015533188E1,1.021114870E1
1.248949221E1,3.399430847E-1,8.437953186E-1,1.008901978E1,1.012994925E1
1.249953021E1,5.005590820E-1,1.213376770E0,1.012030472E1,1.020506787E1
1.250956921E1,1.818717957E-1,7.188052368E-1,1.018077896E1,1.020774307E1
1.251960721E1,4.484674072E-1,1.283580780E0,9.974058838E0,1.006630778E1
1.252964621E1,2.327659607E-1,7.997868347E-1,1.026729904E1,1.030103240E1
1.253968421E1,3.626957703E-1,1.041534119E0,1.015143997E1,1.021117403E1
1.254972321E1,3.393443298E-1,9.089099121E-1,9.900262299E0,9.947686434E0
1.255976221E1,2.845582581E-1,6.942562866E-1,1.000848724E1,1.003657223E1
1.256980021E1,2.197430420E-1,7.637118530E-1,9.672436066E0,9.705027679E0
1.257983921E1,3.674858093E-1,5.758525085E-1,9.897268524E0,9.920815298E0
1.258987721E1,1.472937012E-1,5.387297058E-1,9.638157349E0,9.654325570E0
1.259991621E1,3.727249146E-1,5.611830139E-1,9.684111786E0,9.707516228E0
1.260995421E1,1.990859985E-1,6.132746887E-1,9.691596222E0,9.713021075E0
1.261999321E1,3.939807129E-1,6.113287354E-1,9.887538757E0,9.914250668E0
1.263003221E1,3.329077148E-1,8.613088989E-1,9.909992065E0,9.952920340E0
1.264007021E1,4.418811035E-1,7.512876892E-1,1.003588028E1,1.007365798E1
1.265010921E1,3.947291565E-1,9.535171509E-1,1.002180954E1,1.007480385E1
1.266014721E1,4.640350342E-1,8.357121277E-1,1.017239639E1,1.021721056E1
1.267018621E1,4.692741394E-1,9.645941162E-1,1.022314087E1,1.027926404E1
1.268022421E1,4.867877197E-1,8.214916992E-1,1.004111938E1,1.008642104E1
1.269026321E1,4.870870972E-1,8.012837219E-1,1.007270370E1,1.011625768E1
1.270030221E1,4.496649170E-1,6.755451965E-1,9.931247864E0,9.964348648E0
1.271034021E1,4.737648010E-1,7.014413452E-1,9.916129303E0,9.952190382E0
1.272037921E1,4.071533203E-1,5.676196289E-1,9.850865021E0,9.875601629E0
1.273041721E1,4.532574463E-1,5.806425476E-1,9.875563660E0,9.902996803E0
1.274045621E1,2.929408264E-1,5.017565918E-1,9.743388519E0,9.760696381E0
1.275049421E1,3.611988831E-1,5.643264771E-1,9.770332489E0,9.793279632E0
1.276053321E1,2.347119141E-1,5.234614563E-1,9.792037354E0,9.808827510E0
1.277057121E1,2.963836670E-1,6.286926270E-1,9.949659576E0,9.973907127E0
1.278061021E1,3.067121887E-1,6.021977234E-1,9.974507904E0,9.997375775E0
1.279064921E1,3.489244080E-1,7.105723572E-1,1.003049149E1,1.006168081E1
1.280068721E1,3.854484558E-1,7.310797119E-1,1.000055374E1,1.003464614E1
1.281072621E1,4.504133606E-1,7.253915405E-1,1.010009674E1,1.013612447E1
1.282076421E1,4.635859680E-1,6.945556641E-1,1.007569748E1,1.011024229E1
1.283080321E1,5.508544922E-1,6.893165588E-1,1.004141876E1,1.008011353E1
1.284084121E1,4.626878357E-1,6.294410706E-1,9.912686462E0,9.943421393E0
1.285088021E1,5.559439087E-1,5.885760498E-1,9.976304169E0,1.000910287E1
1.286091921E1,4.905299377E-1,5.346881104E-1,9.882149963E0,9.908753650E0
1.287095721E1,5.077441406E-1,4.935237122E-1,9.878856812E0,9.904200203E0
1.288099621E1,4.269122314E-1,5.049000549E-1,9.790390778E0,9.812692276E0
1.289103421E1,4.117936707E-1,4.279600525E-1,9.882748718E0,9.900578067E0
1.290107321E1,3.225791931E-1,4.863386536E-1,9.869875488E0,9.887114077E0
1.291111121E1,3.632945251E-1,4.914280701E-1,9.911039886E0,9.929863851E0
1.292115021E1,2.606080627E-1,5.572911072E-1,9.899813232E0,9.918910826E0
1.293118921E1,3.766168213E-1,5.456153870E-1,1.004052063E1,1.006238495E1
1.294122721E1,2.811154175E-1,5.977070618E-1,9.993967438E0,1.001577080E1
1.295126621E1,3.617976379E-1,5.611830139E-1,9.939929810E0,9.962330477E0
1.296130421E1,3.841012573E-1,5.809419250E-1,9.958341522E0,9.982664633E0
1.297134321E1,4.745132446E-1,5.282514954E-1,1.004635849E1,1.007142152E1
1.298138121E1,4.846920776E-1,5.463638306E-1,9.952353973E0,9.979117669E0
1.299142021E1,5.113366699E-1,4.990621948E-1,9.874366150E0,9.900183591E0
1.300145921E1,5.550457764E-1,5.010081482E-1,9.879455566E0,9.907710496E0
1.301149721E1,5.303471375E-1,4.613406372E-1,9.935139771E0,9.959975177E0
1.302153621E1,5.222639465E-1,4.400848389E-1,9.982740784E0,1.000607555E1
1.303157421E1,4.486170959E-1,4.299060059E-1,9.834848328E0,9.854456763E0
1.304161321E1,4.168830872E-1,4.327500916E-1,9.871522064E0,9.889793325E0
1.305165121E1,3.442840576E-1,4.330494690E-1,9.933193817E0,9.948587978E0
1.306169021E1,3.570075989E-1,4.477189636E-1,9.977202301E0,9.993621588E0
1.307172921E1,2.891986084E-1,4.622387695E-1,9.936037903E0,9.950987374E0
1.308176721E1,3.459306335E-1,4.810995483E-1,9.954748993E0,9.972369442E0
1.309180621E1,2.885998535E-1,4.704716492E-1,9.973759460E0,9.989019533E0
1.310184421E1,3.552113342E-1,4.444258118E-1,9.979148254E0,9.995353384E0
1.311188321E1,4.059558105E-1,4.441264343E-1,9.930649109E0,9.948861248E0
1.312192121E1,4.396357727E-1,3.974235535E-1,9.940229187E0,9.957880366E0
1.313196021E1,4.923262024E-1,4.086502075E-1,9.881102142E0,9.901795778E0
1.314199921E1,5.177732849E-1,3.930825806E-1,9.907297668E0,9.928602630E0
1.315203721E1,5.209167480E-1,3.779640198E-1,9.904004517E0,9.924893779E0
1.316207621E1,5.192701721E-1,3.944297791E-1,9.896220703E0,9.917681209E0
1.317211421E1,4.984634399E-1,3.873944092E-1,9.932145996E0,9.952188921E0
1.318215321E1,4.433779907E-1,4.074526978E-1,9.939630432E0,9.957853929E0
1.319219121E1,4.318519592E-1,3.956272888E-1,9.980345764E0,9.997515623E0
1.320223021E1,3.457809448E-1,3.986210632E-1,9.945318604E0,9.959308477E0
1.321226821E1,3.626957703E-1,4.167333984E-1,9.970316620E0,9.985611070E0
1.322230721E1,3.146456909E-1,4.046086121E-1,9.969418488E0,9.982585588E0
1.323234621E1,3.345542908E-1,3.803590393E-1,9.990225220E0,1.000305951E1
1.324238421E1,3.462300110E-1,3.764671326E-1,9.904303894E0,9.917501618E0
1.325242321E1,3.742218018E-1,3.382965088E-1,9.896969147E0,9.909817595E0
1.326246121E1,4.182302856E-1,3.279679871E-1,9.887987823E0,9.902261498E0
1.327250021E1,4.538562012E-1,3.046165466E-1,9.896220703E0,9.911304702E0
1.328253821E1,4.667294312E-1,3.031196594E-1,9.859546967E0,9.875240973E0
1.329257721E1,5.270539856E-1,2.878514099E-1,9.837243347E0,9.855556859E0
1.330261621E1,4.995112610E-1,3.213816833E-1,9.887838135E0,9.905662051E0
1.331265421E1,5.339396667E-1,3.411405945E-1,9.928254089E0,9.948452027E0
1.332269321E1,4.671784973E-1,3.471281433E-1,9.954299927E0,9.971300854E0
1.333273121E1,4.584965515E-1,3.451821899E-1,9.950707397E0,9.967243728E0
1.334277021E1,4.189787292E-1,3.832031250E-1,1.001552261E1,1.003160411E1
1.335280821E1,3.743714905E-1,3.517684937E-1,1.001971390E1,1.003287405E1
1.336284721E1,3.829037476E-1,3.975732422E-1,1.000923569E1,1.002444406E1
1.337288621E1,3.348536682E-1,3.094065857E-1,9.932744751E0,9.943202588E0
1.338292421E1,3.635939026E-1,2.948867798E-1,9.988728333E0,9.999692617E0
1.339296321E1,3.345542908E-1,2.821632385E-1,9.869875488E0,9.879574121E0
1.340300121E1,4.291575623E-1,2.478845215E-1,9.897268524E0,9.909669378E0
1.341304058E1,4.119433594E-1,2.351609802E-1,9.847571869E0,9.858989285E0
1.342307858E1,5.054988098E-1,2.170486450E-1,9.874366150E0,9.889678762E0
1.343311758E1,4.442761230E-1,2.219883728E-1,9.842781830E0,9.855303864E0
1.344315658E1,5.233117676E-1,2.269281006E-1,9.876761169E0,9.893218019E0
1.345319458E1,4.704716492E-1,2.371069336E-1,9.875863037E0,9.889905662E0
1.346323358E1,4.921765137E-1,2.435435486E-1,9.949659576E0,9.964801898E0
1.347327158E1,4.444258118E-1,2.823129272E-1,9.911938019E0,9.925912058E0
1.348331058E1,4.456233215E-1,2.519261169E-1,9.995164948E0,1.000826505E1
1.349334858E1,3.986210632E-1,3.179388428E-1,9.940678253E0,9.953746430E0
1.350338758E1,4.058061218E-1,2.926414490E-1,1.002854553E1,1.004101803E1
1.351342658E1,3.665876770E-1,3.026705933E-1,9.983938293E0,9.995249865E0
1.352346458E1,3.918850708E-1,2.498304749E-1,9.983638916E0,9.994450219E0
1.353350358E1,3.814068604E-1,2.656974792E-1,9.918973389E0,9.929858983E0
1.354354158E1,4.067042542E-1,2.216889954E-1,9.959838409E0,9.970603568E0
1.355358058E1,4.161346436E-1,1.933978271E-1,9.914782104E0,9.925395455E0
1.356361858E1,4.478686523E-1,1.898052979E-1,9.852361908E0,9.864362501E0
1.357365758E1,4.240681458E-1,1.193019104E-1,9.835746460E0,9.845606897E0
1.358369658E1,4.583468628E-1,1.907034302E-1,9.847571869E0,9.860077148E0
1.359373458E1,4.337979126E-1,1.291813660E-1,9.887838135E0,9.898192332E0
1.360377358E1,4.282594299E-1,1.827699280E-1,9.919721832E0,9.930644099E0
1.361381158E1,4.180805969E-1,1.751358032E-1,9.907597046E0,9.917960635E0
1.362385058E1,3.682342529E-1,1.966909790E-1,9.911788330E0,9.920576178E0
1.363388858E1,3.559597778E-1,2.061213684E-1,9.939630432E0,9.948137841E0
1.364392758E1,3.667373657E-1,2.234852600E-1,1.000130219E1,1.001051884E1
1.365396658E1,3.462300110E-1,2.115101624E-1,9.976603546E0,9.984850028E0
1.366400458E1,3.622467041E-1,2.372566223E-1,9.970765686E0,9.980164415E0
1.367404358E1,3.167413330E-1,1.930984497E-1,9.939480743E0,9.946400833E0
1.368408158E1,3.969744873E-1,1.841171265E-1,9.947713623E0,9.957333689E0
1.369412058E1,3.653901672E-1,1.577719116E-1,9.913734283E0,9.921720082E0
1.370415858E1,4.334985352E-1,1.315763855E-1,9.901759186E0,9.912117246E0
1.371419758E1,3.996688843E-1,1.230441284E-1,9.844877472E0,9.853754996E0
1.372423658E1,4.275109863E-1,1.040336609E-1,9.901310120E0,9.911081209E0
1.373427458E1,3.992198181E-1,1.133143616E-1,9.861792297E0,9.870519942E0
1.374431358E1,4.134402466E-1,1.190025330E-1,9.908794556E0,9.918130065E0
1.375435158E1,3.649411011E-1,1.440005493E-1,9.878407745E0,9.886195312E0
1.376439058E1,3.847000122E-1,1.353186035E-1,9.949659576E0,9.958013402E0
1.377442858E1,3.270698547E-1,1.579216003E-1,9.914033661E0,9.920684319E0
1.378446758E1,3.640429688E-1,1.374142456E-1,9.955796814E0,9.963398023E0
1.379450558E1,2.971321106E-1,1.742376709E-1,9.954599304E0,9.960556890E0
1.380454458E1,3.632945251E-1,1.489402771E-1,9.977052612E0,9.984775658E0
1.381458358E1,3.201841736E-1,1.466949463E-1,9.942175140E0,9.948411121E0
1.382462158E1,3.737727356E-1,1.176553345E-1,9.961335297E0,9.969039559E0
1.383466058E1,3.763174438E-1,1.049317932E-1,9.907297668E0,9.914997357E0
1.384469858E1,4.074526978E-1,7.873626709E-2,9.920470276E0,9.929146368E0
1.385473758E1,3.993695068E-1,8.876541138E-2,9.894274750E0,9.902729327E0
1.386477558E1,4.179309082E-1,7.050338745E-2,9.868228912E0,9.877326503E0
1.387481458E1,4.285588074E-1,6.406677246E-2,9.884395294E0,9.893888898E0
1.388485358E1,3.993695068E-1,8.202941895E-2,9.893675995E0,9.902072991E0
1.389489158E1,4.114942932E-1,9.550140381E-2,9.939929810E0,9.948902085E0
1.390493058E1,3.570075989E-1,9.101074219E-2,9.907597046E0,9.914444846E0
1.391496858E1,3.688330078E-1,9.325607300E-2,9.935289459E0,9.942570650E0
1.392500758E1,3.216810608E-1,1.011895752E-1,9.947414246E0,9.953128564E0
1.393504558E1,3.469784546E-1,1.050814819E-1,9.988578644E0,9.995155801E0
1.394508458E1,3.110531616E-1,1.080752563E-1,9.920619965E0,9.926083559E0
1.395512358E1,3.264710999E-1,7.439529419E-2,9.944270782E0,9.949906504E0
1.396516158E1,3.182382202E-1,9.325607300E-2,9.907297668E0,9.912846178E0
1.397520058E1,3.406915283E-1,6.631210327E-2,9.927355957E0,9.933421581E0
1.398523858E1,3.373983765E-1,5.313949585E-2,9.885742493E0,9.891641224E0
1.399527758E1,3.710783386E-1,5.733078003E-2,9.880952454E0,9.888084109E0
1.400531558E1,3.439846802E-1,3.742218018E-2,9.898466034E0,9.904511886E0
1.401535458E1,3.537144470E-1,4.460723877E-2,9.913734283E0,9.920142698E0
1.402539358E1,3.373983765E-1,3.532653809E-2,9.899513855E0,9.905324840E0
1.403543158E1,3.299139404E-1,4.790039063E-2,9.935289459E0,9.940880962E0
1.404547058E1,3.077600098E-1,6.885681152E-2,9.926008759E0,9.931017438E0
1.405550858E1,3.011737061E-1,6.286926270E-2,9.941576385E0,9.946335967E0
1.406554758E1,2.594105530E-1,6.092330933E-2,9.947264557E0,9.950833013E0
1.407558558E1,2.579136658E-1,7.110214233E-2,9.949659576E0,9.953255782E0
1.408562458E1,2.180964661E-1,6.481521606E-2,9.945767670E0,9.948369797E0
1.409566358E1,2.194436646E-1,4.640350342E-2,9.931846619E0,9.934378997E0
1.410570158E1,1.986369324E-1,2.140548706E-2,9.908195801E0,9.910209829E0
1.411574058E1,2.068698120E-1,-3.293151855E-3,9.894274750E0,9.896437682E0
1.412577858E1,2.245330811E-1,1.317260742E-2,9.861492920E0,9.864057544E0
1.413581758E1,2.429447937E-1,3.996688843E-2,9.874515839E0,9.877584855E0
1.414585558E1,2.260299683E-1,1.001417542E-1,1.003902374E1,1.004206730E1
1.415589458E1,9.699829102E-2,8.577163696E-2,1.004650818E1,1.004734254E1
1.416593358E1,2.418969727E-1,1.700463867E-1,1.007195526E1,1.007629459E1
1.417597158E1,3.861968994E-2,6.212081909E-2,1.007420059E1,1.007446614E1
1.418601058E1,1.175056458E-1,7.694000244E-2,9.953102417E0,9.954093382E0
1.419604858E1,-8.981323242E-4,4.026626587E-2,9.927655334E0,9.927737034E0
1.420608758E1,-1.047821045E-1,-1.279838562E-1,9.896071014E0,9.897453242E0
1.421612558E1,-1.329235840E-1,-5.987548828E-3,9.779463501E0,9.780368648E0
1.422616458E1,-2.574645996E-1,-1.453477478E-1,9.880054321E0,9.884477092E0
1.423620358E1,-3.258723450E-1,-8.592132568E-2,9.826016693E0,9.831794308E0
1.424624158E1,-3.207829285E-1,-9.610015869E-2,9.800719299E0,9.806438483E0
1.425628058E1,-3.938310242E-1,-1.065783691E-1,9.869875488E0,9.878304712E0
1.426631858E1,-3.897894287E-1,-2.769241333E-2,9.800868988E0,9.808656156E0
1.427635758E1,-4.043092346E-1,1.646575928E-3,9.950857086E0,9.959067497E0
1.428639558E1,-4.255650330E-1,-3.592529297E-3,9.964927826E0,9.974011484E0
1.429643458E1,-3.746708679E-1,1.251397705E-1,9.956844635E0,9.964677281E0
1.430647358E1,-4.231700134E-1,1.631607056E-2,1.003842499E1,1.004735365E1
1.431651158E1,-3.499722290E-1,1.574725342E-1,9.992171173E0,9.999538135E0
1.432655058E1,-4.465214539E-1,6.795867920E-2,9.992470551E0,1.000267302E1
1.433658858E1,-4.680766296E-1,7.454498291E-2,1.001642075E1,1.002762869E1
1.434662758E1,-5.517526245E-1,9.385482788E-2,9.895771637E0,9.911585947E0
1.435666558E1,-6.435118103E-1,3.143463135E-3,9.974956970E0,9.995693267E0
1.436670458E1,-7.424560547E-1,1.871109009E-2,9.907896423E0,9.935693365E0
1.437674358E1,-8.298742676E-1,-3.817062378E-2,9.845326538E0,9.880313909E0
1.438678158E1,-9.448352051E-1,-7.050338745E-2,9.804760895E0,9.850432503E0
1.439682058E1,-1.031355286E0,-5.014572144E-2,9.766590271E0,9.821023055E0
1.440685858E1,-1.118174744E0,-4.251159668E-2,9.869725800E0,9.932955721E0
1.441689771E1,-1.139879608E0,-8.532257080E-3,9.849667511E0,9.915409643E0
1.442693571E1,-1.156944122E0,6.451583862E-2,9.866133270E0,9.933945223E0
1.443697471E1,-1.108295288E0,5.089416504E-2,9.920320587E0,9.982167561E0
1.444701371E1,-1.102906494E0,1.445993042E-1,9.893077240E0,9.955415058E0
1.445705171E1,-1.071022797E0,1.510359192E-1,9.994715881E0,1.005307153E1
1.446709071E1,-1.159788208E0,2.347119141E-1,9.996961212E0,1.006674882E1
1.447712871E1,-1.163829803E0,2.432441711E-1,1.001911514E1,1.008941702E1
1.448716771E1,-1.260828094E0,2.841091919E-1,1.004007156E1,1.012291670E1
1.449720571E1,-1.337169342E0,2.267784119E-1,1.000908600E1,1.010055706E1
1.450724471E1,-1.399739227E0,2.266287231E-1,9.940827942E0,1.004144863E1
1.451728371E1,-1.464404755E0,1.682501221E-1,9.787097626E0,9.897477927E0
1.452732171E1,-1.540446625E0,1.416055298E-1,9.758507080E0,9.880358716E0
1.453736071E1,-1.500779114E0,1.556762695E-1,9.716594238E0,9.833045136E0
1.454739871E1,-1.551373901E0,2.465373230E-1,9.840536499E0,9.965124195E0
1.455743771E1,-1.461410980E0,2.929408264E-1,9.844877472E0,9.957065271E0
1.456747571E1,-1.440753937E0,5.414241028E-1,9.925859070E0,1.004448059E1
1.457751471E1,-1.391057281E0,4.032614136E-1,1.008542725E1,1.018889115E1
1.458755371E1,-1.286275177E0,6.861730957E-1,1.000743942E1,1.011306982E1
1.459759171E1,-1.288221130E0,6.489006042E-1,1.004306534E1,1.014611980E1
1.460763071E1,-1.352886658E0,6.616241455E-1,1.014979340E1,1.026091394E1
1.461766871E1,-1.386716309E0,7.203021240E-1,1.004052063E1,1.016139123E1
1.462770771E1,-1.428030396E0,6.688092041E-1,1.011371841E1,1.023591113E1
1.463774571E1,-1.549877014E0,6.499484253E-1,9.883347473E0,1.002522364E1
1.464778471E1,-1.586700439E0,6.436614990E-1,9.898316345E0,1.004532652E1
1.465782371E1,-1.689985657E0,5.700146484E-1,9.865983582E0,1.002589648E1
1.466786171E1,-1.759141846E0,6.149212646E-1,9.739346924E0,9.916026760E0
1.467790071E1,-1.749262390E0,5.959107971E-1,9.761051788E0,9.934443145E0
1.468793871E1,-1.773511963E0,6.941065979E-1,9.753267975E0,9.937472759E0
1.469797771E1,-1.668580170E0,7.117698669E-1,9.755962372E0,9.923183860E0
1.470801571E1,-1.739233246E0,8.500822449E-1,9.827214203E0,1.001607264E1
1.471805471E1,-1.608255615E0,8.822653198E-1,9.817783813E0,9.987680273E0
1.472809371E1,-1.647174683E0,1.107995911E0,9.982890472E0,1.017835653E1
1.473813171E1,-1.593436432E0,1.093176727E0,1.009291168E1,1.027623186E1
1.474817071E1,-1.497785339E0,1.287622375E0,1.000609222E1,1.019917712E1
1.475820871E1,-1.468596039E0,1.152154083E0,1.000699036E1,1.017959181E1
1.476824771E1,-1.282832336E0,1.308878174E0,9.946516113E0,1.011395094E1
1.477828571E1,-1.206491089E0,1.221609650E0,9.915979614E0,1.006352834E1
1.478832471E1,-1.039288788E0,1.256636810E0,9.971663818E0,1.010412473E1
1.479836371E1,-9.437873840E-1,1.334624634E0,9.721983032E0,9.858443671E0
1.480840171E1,-7.894583130E-1,1.310225372E0,9.923164673E0,1.004037510E1
1.481844071E1,-7.348219299E-1,1.430275726E0,9.920619965E0,1.005009216E1
1.482847871E1,-6.336323547E-1,1.511407013E0,1.008018814E1,1.021254298E1
1.483851771E1,-6.800358582E-1,1.563498688E0,1.011057495E1,1.025332642E1
1.484855571E1,-6.273454285E-1,1.617536316E0,1.008857071E1,1.023666181E1
1.485859471E1,-6.749464417E-1,1.594035187E0,1.010847931E1,1.025562552E1
1.486863371E1,-6.848258972E-1,1.591490479E0,1.005444168E1,1.020262839E1
1.487867171E1,-7.316784668E-1,1.566492462E0,9.936486969E0,1.008578333E1
1.488871071E1,-6.713539124E-1,1.472038879E0,9.967023468E0,1.009748342E1
1.489874871E1,-6.351292419E-1,1.481768646E0,9.848769379E0,9.979843974E0
1.490878771E1,-5.438191223E-1,1.438658295E0,9.836345215E0,9.955860792E0
1.491882571E1,-5.144801331E-1,1.494941254E0,9.725276184E0,9.852945550E0
1.492886471E1,-3.914360046E-1,1.525028687E0,9.806557159E0,9.932144681E0
1.493890371E1,-3.278182983E-1,1.642085266E0,9.997260590E0,1.013652446E1
1.494894171E1,-2.618055725E-1,1.705253906E0,1.023287064E1,1.037728647E1
1.495898071E1,-2.439926147E-1,1.816322937E0,1.006447083E1,1.022996258E1
1.496901871E1,-2.353106689E-1,1.816173248E0,1.021535706E1,1.037821642E1
1.497905771E1,-1.736389160E-1,1.894161072E0,1.030067963E1,1.047482684E1
1.498909571E1,-1.276844788E-1,1.852996674E0,1.035262161E1,1.051792157E1
1.499913471E1,-2.191442871E-1,1.778601379E0,1.016865417E1,1.032535592E1
1.500917371E1,-1.935475159E-1,1.775906982E0,1.014126114E1,1.029740180E1
1.501921171E1,-2.912942505E-1,1.684447174E0,1.009919861E1,1.024285249E1
1.502925071E1,-2.850073242E-1,1.545835419E0,1.001567230E1,1.013827046E1
1.503928871E1,-3.659889221E-1,1.453776855E0,9.773475952E0,9.887782725E0
1.504932771E1,-4.272116089E-1,1.299747162E0,9.725425873E0,9.821189381E0
1.505936571E1,-4.215234375E-1,1.341061249E0,9.680369568E0,9.781905860E0
1.506940471E1,-4.736151123E-1,1.249451752E0,9.710606689E0,9.802108101E0
1.507944371E1,-4.840933228E-1,1.320104828E0,9.658664703E0,9.760472681E0
1.508948171E1,-4.938230896E-1,1.368603973E0,9.725874939E0,9.834102979E0
1.509952071E1,-5.266049194E-1,1.483714600E0,9.902657318E0,1.002703065E1
1.510955871E1,-4.733157349E-1,1.598974915E0,1.000414627E1,1.014217389E1
1.511959771E1,-4.474195862E-1,1.679208069E0,1.010294083E1,1.025130906E1
1.512963571E1,-4.159849548E-1,1.730850677E0,1.012793884E1,1.028319176E1
1.513967471E1,-3.058140564E-1,1.796114960E0,1.022493713E1,1.038599492E1
1.514971371E1,-3.032693481E-1,1.786235504E0,1.030067963E1,1.045880540E1
1.515975171E1,-1.920506287E-1,1.755399628E0,1.024245071E1,1.039356089E1
1.516979071E1,-2.068698120E-1,1.726659393E0,1.010443771E1,1.025299026E1
1.517982871E1,-2.088157654E-1,1.610500946E0,1.005683670E1,1.018711351E1
1.518986771E1,-2.459385681E-1,1.555265808E0,1.006162674E1,1.018408907E1
1.519990571E1,-3.192860413E-1,1.463656311E0,9.963430939E0,1.007542503E1
1.520994471E1,-3.830534363E-1,1.360670471E0,9.756261749E0,9.858133565E0
1.521998371E1,-4.438270569E-1,1.333427124E0,9.691745911E0,9.793107226E0
1.523002171E1,-5.126838684E-1,1.295106812E0,9.768087158E0,9.866897847E0
1.524006071E1,-5.433700562E-1,1.340612183E0,9.777068481E0,9.883499387E0
1.525009871E1,-5.629792786E-1,1.358574829E0,9.834698639E0,9.944041862E0
1.526013771E1,-5.884263611E-1,1.413660278E0,9.859696655E0,9.977890513E0
1.527017571E1,-5.441184998E-1,1.502425690E0,9.966424713E0,1.009370940E1
1.528021471E1,-5.523513794E-1,1.578467560E0,1.002719833E1,1.016569517E1
1.529025371E1,-4.623884583E-1,1.601519623E0,1.011102402E1,1.024751067E1
1.530029171E1,-3.830534363E-1,1.646426239E0,1.014590149E1,1.028575551E1
1.531033071E1,-3.324586487E-1,1.634151764E0,1.012569351E1,1.026209773E1
1.532036871E1,-2.680924988E-1,1.630708923E0,1.010144394E1,1.023573421E1
1.533040771E1,-2.227368164E-1,1.626218262E0,1.007794281E1,1.021073596E1
1.534044571E1,-2.270777893E-1,1.555265808E0,1.009216324E1,1.021382274E1
1.535048471E1,-2.688409424E-1,1.473984833E0,1.002390518E1,1.013526427E1
1.536052371E1,-3.140469360E-1,1.457668762E0,9.923314362E0,1.003471931E1
1.537056171E1,-3.797602844E-1,1.385668488E0,9.899962921E0,1.000367737E1
1.538060071E1,-4.813989258E-1,1.375789032E0,9.809401245E0,9.917101047E0
1.539063871E1,-4.713697815E-1,1.302441559E0,9.952952728E0,1.004887116E1
1.540067771E1,-6.306385803E-1,1.343605957E0,9.794582062E0,9.906402967E0
1.541071500E1,-5.539979553E-1,1.332678680E0,9.932894440E0,1.003719772E1
1.542075400E1,-6.634204102E-1,1.389111328E0,9.850865021E0,9.970421184E0
1.543079300E1,-5.578898621E-1,1.385518799E0,9.932295685E0,1.004397337E1
1.544083100E1,-5.722599792E-1,1.450932770E0,9.976304169E0,1.009749138E1
1.545087000E1,-4.758604431E-1,1.436862030E0,1.002944366E1,1.014301513E1
1.546090800E1,-4.195774841E-1,1.517843628E0,9.903555450E0,1.002797612E1
1.547094700E1,-3.586541748E-1,1.473086700E0,1.003123993E1,1.014516593E1
1.548098500E1,-2.826123047E-1,1.506167908E0,1.009366013E1,1.020932839E1
1.549102400E1,-2.755769348E-1,1.507515106E0,1.008587631E1,1.020163935E1
1.550106300E1,-2.300715637E-1,1.487456818E0,1.008422974E1,1.019593792E1
1.551110100E1,-3.433859253E-1,1.466949463E0,9.923014984E0,1.003673657E1
1.552114000E1,-3.335064697E-1,1.445693665E0,1.008692413E1,1.019545463E1
1.553117800E1,-4.432283020E-1,1.397942963E0,9.986033936E0,1.009314468E1
1.554121700E1,-4.379891968E-1,1.374142456E0,1.000728973E1,1.011068493E1
1.555125500E1,-5.442681885E-1,1.361418915E0,9.864187317E0,9.972556380E0
1.556129400E1,-5.354365540E-1,1.303489380E0,1.001312759E1,1.011180009E1
1.557133300E1,-6.180647278E-1,1.311422882E0,9.882000275E0,9.987780705E0
1.558137100E1,-5.237608337E-1,1.308728485E0,9.867031403E0,9.967216480E0
1.559141000E1,-6.020480347E-1,1.275796967E0,9.857002258E0,9.957440096E0
1.560144800E1,-4.719685364E-1,1.285676422E0,9.955796814E0,1.004955762E1
1.561148700E1,-5.310955811E-1,1.322649536E0,9.824370117E0,9.927220785E0
1.562152500E1,-3.944297791E-1,1.302291870E0,9.910590820E0,1.000356683E1
1.563156400E1,-3.954776001E-1,1.369202728E0,9.928553467E0,1.003031867E1
1.564160300E1,-3.372486877E-1,1.378034363E0,1.002225861E1,1.012217284E1
1.565164100E1,-3.132984924E-1,1.424886932E0,1.009261230E1,1.019751351E1
1.566168000E1,-3.140469360E-1,1.447489929E0,1.003752686E1,1.014622087E1
1.567171800E1,-3.174897766E-1,1.420096893E0,1.003543121E1,1.014038237E1
1.568175700E1,-3.688330078E-1,1.406026154E0,1.012883698E1,1.023260894E1
1.569179500E1,-3.879931641E-1,1.416953430E0,1.011192215E1,1.021808521E1
1.570183400E1,-4.596940613E-1,1.351689148E0,1.001417542E1,1.011543827E1
1.571187300E1,-4.682263184E-1,1.320853271E0,9.983489227E0,1.008136630E1
1.572191100E1,-5.023553467E-1,1.286724243E0,9.899513855E0,9.995418687E0
1.573195000E1,-5.078938293E-1,1.207838287E0,9.969867554E0,1.005559986E1
1.574198800E1,-5.023553467E-1,1.238225098E0,9.802964630E0,9.893618035E0
1.575202700E1,-4.748126221E-1,1.168470154E0,9.828262024E0,9.908859871E0
1.576206500E1,-4.932243347E-1,1.152752838E0,9.863289185E0,9.942664778E0
1.577210400E1,-4.152365112E-1,1.218316498E0,9.858499146E0,9.942168871E0
1.578214300E1,-4.345463562E-1,1.218615875E0,9.852661285E0,9.937242555E0
1.579218100E1,-3.839515686E-1,1.245260468E0,9.957144012E0,1.004205205E1
1.580222000E1,-3.498225403E-1,1.349743195E0,1.003168900E1,1.012812750E1
1.581225800E1,-3.733236694E-1,1.302441559E0,1.001327728E1,1.010452604E1
1.582229700E1,-3.683839417E-1,1.340612183E0,1.001746857E1,1.011348724E1
1.583233500E1,-3.582051086E-1,1.384021912E0,1.016521133E1,1.026524958E1
1.584237400E1,-4.016148376E-1,1.385967865E0,1.010518616E1,1.020769262E1
1.585241300E1,-3.646417236E-1,1.327888641E0,1.009380981E1,1.018730820E1
1.586245100E1,-4.376898193E-1,1.314865723E0,1.000100281E1,1.009655889E1
1.587249000E1,-3.737727356E-1,1.263372803E0,1.002824615E1,1.011442227E1
1.588252800E1,-4.555027771E-1,1.251846771E0,9.949809265E0,1.003859091E1
1.589256700E1,-3.800596619E-1,1.155447235E0,9.855655060E0,9.930430017E0
1.590260500E1,-4.155358887E-1,1.153052216E0,9.838291168E0,9.914341763E0
1.591264400E1,-4.104464722E-1,1.075812836E0,9.861193542E0,9.928191056E0
1.592268300E1,-3.849993896E-1,1.119971008E0,9.845476227E0,9.916449048E0
1.593272100E1,-4.330494690E-1,1.094523926E0,9.824669495E0,9.894930275E0
1.594276000E1,-3.700305176E-1,1.155746613E0,9.960886230E0,1.003453673E1
1.595279800E1,-3.930825806E-1,1.183888092E0,9.903405762E0,9.981660714E0
1.596283700E1,-3.990701294E-1,1.212778015E0,9.959838409E0,1.004133799E1
1.597287500E1,-4.143383789E-1,1.275198212E0,1.006372238E1,1.015265064E1
1.598291400E1,-3.668870544E-1,1.305585022E0,1.009994705E1,1.019058825E1
1.599295300E1,-4.237687683E-1,1.303489380E0,1.003243744E1,1.012563408E1
1.600299100E1,-3.216810608E-1,1.256187744E0,1.011192215E1,1.019472687E1
1.601303000E1,-4.363426208E-1,1.278940430E0,9.938283234E0,1.002973365E1
1.602306800E1,-3.035687256E-1,1.209484863E0,1.007914032E1,1.015598726E1
1.603310700E1,-3.586541748E-1,1.204545135E0,9.974058838E0,1.005293049E1
1.604314500E1,-3.043171692E-1,1.124311981E0,9.921069031E0,9.989209032E0
1.605318400E1,-3.362008667E-1,1.132395172E0,9.814939728E0,9.885767128E0
1.606322300E1,-3.276686096E-1,1.063238983E0,9.945468292E0,1.000750635E1
1.607326100E1,-3.516188049E-1,1.097966766E0,9.871072998E0,9.938171307E0
1.608330000E1,-3.119512939E-1,1.095571747E0,9.888586578E0,9.953980891E0
1.609333800E1,-4.117936707E-1,1.122515717E0,9.831405487E0,9.903845183E0
1.610337700E1,-3.284170532E-1,1.132993927E0,9.964778137E0,1.003435779E1
1.611341500E1,-4.379891968E-1,1.201551361E0,9.971663818E0,1.005333972E1
1.612345400E1,-3.573069763E-1,1.143472137E0,1.004800507E1,1.011917006E1
1.613349300E1,-3.839515686E-1,1.221160583E0,1.001462448E1,1.009610596E1
1.614353100E1,-3.576063538E-1,1.192719727E0,9.990075531E0,1.006737661E1
1.615357000E1,-3.420387268E-1,1.186283112E0,1.006417145E1,1.013961563E1
1.616360800E1,-3.321592712E-1,1.190175018E0,9.978699188E0,1.005491342E1
1.617364700E1,-2.146536255E-1,1.153950348E0,1.001088226E1,1.007945640E1
1.618368500E1,-3.129991150E-1,1.134191437E0,9.910740509E0,9.980337474E0
1.619372400E1,-1.782792664E-1,1.135388947E0,1.000220032E1,1.006801384E1
1.620376300E1,-3.140469360E-1,1.118923187E0,9.863289185E0,9.931519930E0
1.621380100E1,-2.064207458E-1,1.054407349E0,9.995015259E0,1.005259740E1
1.622384000E1,-3.204835510E-1,1.111887817E0,9.847721558E0,9.915473973E0
1.623387800E1,-2.689906311E-1,1.074914703E0,9.953701172E0,1.001518670E1
1.624391700E1,-3.382965088E-1,1.134341125E0,9.989027710E0,1.005891887E1
1.625395600E1,-3.218307495E-1,1.118474121E0,1.000743942E1,1.007488974E1
1.626399400E1,-3.426374817E-1,1.122515717E0,9.889335022E0,9.958734315E0
1.627403300E1,-2.962339783E-1,1.139879608E0,1.005069946E1,1.011946835E1
1.628407100E1,-3.347039795E-1,1.158441010E0,1.000953506E1,1.008190481E1
1.629411000E1,-2.981799316E-1,1.107846222E0,9.939181366E0,1.000517670E1
1.630414800E1,-2.610571289E-1,1.123114471E0,9.951455841E0,1.001803425E1
1.631418700E1,-2.782713318E-1,1.090033264E0,9.895172882E0,9.958918306E0
1.632422600E1,-2.246827698E-1,1.056652679E0,9.952054596E0,1.001051387E1
1.633426400E1,-2.209405518E-1,1.120270386E0,9.877060547E0,9.942843935E0
1.634430300E1,-1.788780212E-1,1.058898010E0,9.925709381E0,9.983635062E0
1.635434100E1,-2.377056885E-1,1.101409607E0,9.940977631E0,1.000463110E1
1.636438000E1,-1.582209778E-1,1.109343109E0,1.002076172E1,1.008322079E1
1.637441800E1,-2.716850281E-1,1.103205872E0,9.960736542E0,1.002532535E1
1.638445700E1,-2.077679443E-1,1.156944122E0,9.984237671E0,1.005319298E1
1.639449600E1,-2.538720703E-1,1.143322449E0,1.002585114E1,1.009402438E1
1.640453400E1,-2.668949890E-1,1.099164276E0,1.003049149E1,1.009406531E1
1.641457288E1,-2.418969727E-1,1.137035522E0,9.961934052E0,1.002953109E1
1.642461088E1,-2.719844055E-1,1.116827545E0,9.972112885E0,1.003814299E1
1.643464988E1,-1.853146362E-1,1.102158051E0,9.980196075E0,1.004257973E1
1.644468788E1,-2.386038208E-1,1.088087311E0,9.919721832E0,9.982071278E0
1.645472688E1,-2.026785278E-1,1.052461395E0,9.940678253E0,9.998291739E0
