"Time (s)","Acceleration x (m/s^2)","Acceleration y (m/s^2)","Acceleration z (m/s^2)","Absolute acceleration (m/s^2)"
4.045916670E-3,1.098715210E-1,3.890409851E-1,9.776170349E0,9.784525095E0
1.409191667E-2,1.014889526E-1,3.821553040E-1,9.785750427E0,9.793735452E0
2.413691667E-2,1.221459961E-1,3.752696228E-1,9.776469727E0,9.784431882E0
3.418291667E-2,1.278341675E-1,3.671864319E-1,9.789043579E0,9.796761794E0
4.422791667E-2,1.260379028E-1,3.552113342E-1,9.788145447E0,9.795399529E0
5.427291667E-2,1.323248291E-1,3.592529297E-1,9.783056030E0,9.790544307E0
6.431891667E-2,1.225950623E-1,3.547622681E-1,9.780361633E0,9.787561468E0
7.436391667E-2,1.061293030E-1,3.673361206E-1,9.769584045E0,9.777063551E0
8.440991667E-2,9.969268799E-2,3.713777161E-1,9.787696381E0,9.795246831E0
9.445491667E-2,9.924362183E-2,3.613485718E-1,9.804910583E0,9.812068775E0
1.045009167E-1,9.984237671E-2,3.706292725E-1,9.798623657E0,9.806138900E0
1.145459167E-1,1.164578247E-1,3.790118408E-1,9.782457275E0,9.790489403E0
1.245909167E-1,1.264869690E-1,3.716770935E-1,9.797426147E0,9.805289487E0
1.346369167E-1,1.191522217E-1,3.676354980E-1,9.789642334E0,9.797267483E0
1.446819167E-1,1.273851013E-1,3.691323853E-1,9.782457275E0,9.790248006E0
1.547279167E-1,1.163081360E-1,3.769161987E-1,9.790540466E0,9.798483353E0
1.647729167E-1,1.161584473E-1,3.698808289E-1,9.791139221E0,9.798811758E0
1.748189167E-1,1.142124939E-1,3.650907898E-1,9.796977081E0,9.804442652E0
1.848639167E-1,9.879455566E-2,3.604504395E-1,9.780810699E0,9.787948857E0
1.949089167E-1,1.127156067E-1,3.662882996E-1,9.779313812E0,9.786820248E0
2.049549167E-1,1.193019104E-1,3.538641357E-1,9.805060272E0,9.812168961E0
2.149999167E-1,1.125659180E-1,3.582051086E-1,9.794282684E0,9.801477199E0
2.250459167E-1,1.131646729E-1,3.736230469E-1,9.796528015E0,9.804303217E0
2.350909167E-1,1.182540894E-1,3.679348755E-1,9.792785797E0,9.800408857E0
2.451369167E-1,1.215472412E-1,3.752696228E-1,9.790241089E0,9.798184607E0
2.551819167E-1,1.152603149E-1,3.826043701E-1,9.796827393E0,9.804973126E0
2.652269167E-1,1.224453735E-1,3.784130859E-1,9.774374084E0,9.782462782E0
2.752729167E-1,1.243913269E-1,3.784130859E-1,9.790241089E0,9.798341199E0
2.853179167E-1,1.181044006E-1,3.713777161E-1,9.785451050E0,9.793207968E0
2.953639167E-1,1.127156067E-1,3.737727356E-1,9.786349182E0,9.794132998E0
3.054089167E-1,1.151106262E-1,3.855981445E-1,9.785151672E0,9.793422774E0
3.154549167E-1,1.278341675E-1,3.701802063E-1,9.786049805E0,9.793883078E0
3.254999167E-1,1.040336609E-1,3.806584167E-1,9.774224396E0,9.782187198E0
3.355449167E-1,1.131646729E-1,3.658392334E-1,9.792486420E0,9.799971167E0
3.455909167E-1,1.182540894E-1,3.664379883E-1,9.791288910E0,9.798857043E0
3.556359167E-1,1.107696533E-1,3.564088440E-1,9.799222412E0,9.806327399E0
3.656819167E-1,1.095721436E-1,3.628454590E-1,9.786798248E0,9.794135124E0
3.757269167E-1,1.155596924E-1,3.770658875E-1,9.785001984E0,9.792946265E0
3.857729167E-1,1.199006653E-1,3.776646423E-1,9.793833618E0,9.801845933E0
3.958179167E-1,1.311273193E-1,3.746708679E-1,9.796078949E0,9.804118288E0
4.058639167E-1,1.279838562E-1,3.673361206E-1,9.790241089E0,9.797965925E0
4.159089167E-1,1.267863464E-1,3.616479492E-1,9.790241089E0,9.797738749E0
4.259539167E-1,1.167572021E-1,3.709286499E-1,9.793384552E0,9.801102045E0
4.359999167E-1,1.179547119E-1,3.764671326E-1,9.781559143E0,9.789511739E0
4.460449167E-1,1.130149841E-1,3.556604004E-1,9.779762878E0,9.786880436E0
4.560909167E-1,1.212478638E-1,3.650907898E-1,9.802814941E0,9.810360498E0
4.661359167E-1,1.002914429E-1,3.667373657E-1,9.780211945E0,9.787599315E0
4.761819167E-1,1.109193420E-1,3.677851868E-1,9.781858521E0,9.789398611E0
4.862269167E-1,1.230441284E-1,3.734733582E-1,9.790540466E0,9.798433795E0
4.962719167E-1,1.155596924E-1,3.606001282E-1,9.787546692E0,9.794868899E0
5.063179167E-1,1.146615601E-1,3.646417236E-1,9.774523773E0,9.781994983E0
5.163629167E-1,1.071771240E-1,3.864962769E-1,9.804162140E0,9.812362691E0
5.264089167E-1,1.179547119E-1,4.087998962E-1,9.795180817E0,9.804417265E0
5.364539167E-1,1.184037781E-1,4.285588074E-1,9.788594513E0,9.798686884E0
5.464999167E-1,1.203497314E-1,4.418811035E-1,9.804461517E0,9.815151991E0
5.565449167E-1,1.383123779E-1,4.221221924E-1,9.768386536E0,9.778481118E0
5.665899167E-1,1.428030396E-1,3.766168213E-1,9.765991516E0,9.774294002E0
5.766359167E-1,1.269360352E-1,3.522175598E-1,9.774224396E0,9.781392156E0
5.866809167E-1,1.254391479E-1,3.394940186E-1,9.796228638E0,9.802912154E0
5.967269167E-1,1.110690308E-1,3.403921509E-1,9.790690155E0,9.797235164E0
6.067719167E-1,9.834548950E-2,3.167413330E-1,9.807006226E0,9.812612701E0
6.168179167E-1,1.070274353E-1,2.924917603E-1,9.789642334E0,9.794595618E0
6.268629167E-1,1.088237000E-1,2.856060791E-1,9.803264008E0,9.808027255E0
6.369079167E-1,1.190025330E-1,3.047662354E-1,9.793534241E0,9.798997754E0
6.469539167E-1,1.279838562E-1,3.559597778E-1,9.783505096E0,9.790815043E0
6.569989167E-1,1.285826111E-1,3.908372498E-1,9.777068481E0,9.785722014E0
6.670449167E-1,1.380130005E-1,4.032614136E-1,9.799372101E0,9.808637058E0
6.770899167E-1,1.324745178E-1,4.281097412E-1,9.788145447E0,9.798398784E0
6.871359167E-1,1.345701599E-1,4.174818420E-1,9.783355408E0,9.793183509E0
6.971809167E-1,1.089733887E-1,4.275109863E-1,9.788744202E0,9.798681232E0
7.072259167E-1,1.071771240E-1,4.068539429E-1,9.795330505E0,9.804362130E0
7.172719167E-1,1.152603149E-1,3.664379883E-1,9.784852295E0,9.792389707E0
7.273169167E-1,1.240919495E-1,3.426374817E-1,9.788145447E0,9.794926776E0
7.373629167E-1,1.213975525E-1,3.248245239E-1,9.797575836E0,9.803710553E0
7.474079167E-1,1.199006653E-1,3.207829285E-1,9.783954163E0,9.789945705E0
7.574539167E-1,1.065783691E-1,3.347039795E-1,9.793085175E0,9.799382784E0
7.674989167E-1,1.056802368E-1,3.405418396E-1,9.786349182E0,9.792842660E0
7.775439167E-1,1.080752563E-1,3.676354980E-1,9.776320038E0,9.783826941E0
7.875899167E-1,1.146615601E-1,3.908372498E-1,9.758058014E0,9.766555034E0
7.976349167E-1,1.179547119E-1,4.061054993E-1,9.801467743E0,9.810586369E0
8.076809167E-1,1.160087585E-1,4.318519592E-1,9.793683929E0,9.803886936E0
8.177259167E-1,1.266366577E-1,4.192781067E-1,9.782756653E0,9.792556290E0
8.277719167E-1,1.420545959E-1,4.123924255E-1,9.789642334E0,9.799354267E0
8.378169167E-1,1.320254517E-1,3.932322693E-1,9.781110077E0,9.789901770E0
8.478629167E-1,1.306782532E-1,3.713777161E-1,9.790540466E0,9.798452982E0
8.579079167E-1,1.266366577E-1,3.367996216E-1,9.800419922E0,9.807023069E0
8.679529167E-1,1.272354126E-1,3.228785706E-1,9.784403229E0,9.790555958E0
8.779989167E-1,1.110690308E-1,3.231779480E-1,9.775272217E0,9.781243644E0
8.880439167E-1,1.088237000E-1,3.129991150E-1,9.792486420E0,9.798091718E0
8.980899167E-1,9.580078125E-2,3.433859253E-1,9.783804474E0,9.790297323E0
9.081344167E-1,8.202941895E-2,3.573069763E-1,9.791139221E0,9.798000018E0
9.181804167E-1,9.565109253E-2,3.854484558E-1,9.796228638E0,9.804275351E0
9.282254167E-1,1.044827271E-1,4.126918030E-1,9.790540466E0,9.799791518E0
9.382704167E-1,1.375639343E-1,4.156855774E-1,9.781259766E0,9.791055149E0
9.483164167E-1,1.511856079E-1,4.176315308E-1,9.784552917E0,9.794628578E0
9.583614167E-1,1.428030396E-1,4.240681458E-1,9.795929260E0,9.806143818E0
9.684074167E-1,1.410067749E-1,4.035607910E-1,9.777667236E0,9.787007756E0
9.784524167E-1,1.209484863E-1,4.017645264E-1,9.806856537E0,9.815827953E0
9.884984167E-1,1.043330383E-1,3.710783386E-1,9.787247314E0,9.794835094E0
9.985434167E-1,9.864486694E-2,3.390449524E-1,9.782307587E0,9.788678359E0
1.008588417E0,1.112187195E-1,3.335064697E-1,9.786049805E0,9.792362685E0
1.018634417E0,9.445358276E-2,3.034190369E-1,9.793983307E0,9.799137391E0
1.028679417E0,1.085243225E-1,3.098556519E-1,9.785451050E0,9.790957068E0
1.038725417E0,1.252894592E-1,3.365002441E-1,9.778265991E0,9.784856445E0
1.048770417E0,1.136137390E-1,3.516188049E-1,9.788145447E0,9.795117924E0
1.058816417E0,1.154100037E-1,3.809577942E-1,9.774972839E0,9.783074278E0
1.068861417E0,1.137634277E-1,3.899391174E-1,9.784852295E0,9.793279791E0
1.078906417E0,1.267863464E-1,4.147874451E-1,9.799222412E0,9.808816610E0
1.088952417E0,1.269360352E-1,4.224215698E-1,9.801018677E0,9.810938785E0
1.098997417E0,1.472937012E-1,4.026626587E-1,9.777966614E0,9.787362451E0
1.109043417E0,1.405577087E-1,3.965254211E-1,9.776020660E0,9.785068668E0
1.119088417E0,1.368154907E-1,3.757186890E-1,9.797426147E0,9.805582192E0
1.129134417E0,1.252894592E-1,3.549119568E-1,9.782756653E0,9.789994263E0
1.139179417E0,1.082249451E-1,3.486250305E-1,9.799521790E0,9.806318338E0
1.149225417E0,9.325607300E-2,3.508703613E-1,9.804461517E0,9.811180987E0
1.159270417E0,8.592132568E-2,3.474275208E-1,9.787696381E0,9.794237530E0
1.169315417E0,8.906478882E-2,3.598516846E-1,9.787995758E0,9.795013360E0
1.179361417E0,1.035845947E-1,3.583547974E-1,9.791887665E0,9.798990355E0
1.189406417E0,1.037342834E-1,3.785627747E-1,9.768236847E0,9.776119970E0
1.199452417E0,1.272354126E-1,3.920347595E-1,9.772128754E0,9.780816964E0
1.209497417E0,1.434017944E-1,3.932322693E-1,9.781858521E0,9.790809558E0
1.219543417E0,1.393601990E-1,4.052073669E-1,9.800868988E0,9.810231761E0
1.229588417E0,1.413061523E-1,3.876937866E-1,9.782008209E0,9.790707763E0
1.239633417E0,1.308279419E-1,3.794609070E-1,9.803713074E0,9.811926241E0
1.249679417E0,1.178050232E-1,3.564088440E-1,9.789193268E0,9.796387606E0
1.259724417E0,1.026864624E-1,3.447331238E-1,9.781708832E0,9.788320239E0
1.269770417E0,9.939331055E-2,3.429368591E-1,9.792187042E0,9.798694392E0
1.279815417E0,9.684860229E-2,3.279679871E-1,9.772577820E0,9.778559193E0
1.289861417E0,9.056167603E-2,3.444337463E-1,9.795180817E0,9.801653088E0
1.299906417E0,8.128097534E-2,3.547622681E-1,9.805808716E0,9.812560697E0
1.309951417E0,9.894424438E-2,3.565585327E-1,9.789193268E0,9.796184399E0
1.319997417E0,1.125659180E-1,4.005670166E-1,9.813143463E0,9.821960581E0
1.330042417E0,1.270857239E-1,4.062551880E-1,9.796528015E0,9.805771526E0
1.340088417E0,1.465452576E-1,4.032614136E-1,9.771230621E0,9.780646356E0
1.350133417E0,1.463955688E-1,4.224215698E-1,9.800120544E0,9.810312652E0
1.360179417E0,1.384620667E-1,4.026626587E-1,9.782307587E0,9.791570389E0
1.370224417E0,1.348695374E-1,3.845503235E-1,9.784702606E0,9.793185071E0
1.380270417E0,1.149609375E-1,3.827540588E-1,9.793085175E0,9.801236347E0
1.390315417E0,1.046324158E-1,3.631448364E-1,9.781559143E0,9.788857001E0
1.400360417E0,8.801696777E-2,3.414399719E-1,9.785301361E0,9.791652106E0
1.410406417E0,1.041833496E-1,3.273692322E-1,9.795779572E0,9.801801987E0
1.420451417E0,1.068777466E-1,3.441343689E-1,9.772877197E0,9.779518395E0
1.430497417E0,1.037342834E-1,3.564088440E-1,9.798174591E0,9.805203383E0
1.440542417E0,1.169068909E-1,3.606001282E-1,9.790390778E0,9.797726841E0
1.450588417E0,1.278341675E-1,3.754193115E-1,9.788444824E0,9.796475556E0
1.460633417E0,1.243913269E-1,3.944297791E-1,9.797725525E0,9.806450607E0
1.470678417E0,1.279838562E-1,4.023632813E-1,9.769733734E0,9.778853374E0
1.480724417E0,1.149609375E-1,4.083508301E-1,9.797725525E0,9.806905316E0
1.490769417E0,1.110690308E-1,3.983216858E-1,9.794282684E0,9.803008201E0
1.500815417E0,1.191522217E-1,3.844006348E-1,9.785900116E0,9.794171848E0
1.510860417E0,1.173559570E-1,3.685336304E-1,9.796977081E0,9.804608579E0
1.520906417E0,1.121168518E-1,3.683839417E-1,9.774523773E0,9.782105699E0
1.530951417E0,1.026864624E-1,3.481759644E-1,9.805209961E0,9.811927099E0
1.540997417E0,1.035845947E-1,3.600013733E-1,9.789941711E0,9.797106178E0
1.551042417E0,1.152603149E-1,3.640429688E-1,9.774224396E0,9.781680569E0
1.561087417E0,1.140628052E-1,3.493734741E-1,9.797875214E0,9.804765721E0
1.571133417E0,1.139131165E-1,3.550616455E-1,9.793234863E0,9.800331324E0
1.581178417E0,1.182540894E-1,3.679348755E-1,9.785900116E0,9.793528536E0
1.591224417E0,1.029858398E-1,3.778143311E-1,9.792187042E0,9.800014124E0
1.601269417E0,1.158590698E-1,3.936813354E-1,9.782457275E0,9.791061161E0
1.611315417E0,1.224453735E-1,3.923341370E-1,9.779164124E0,9.787796989E0
1.621360417E0,1.199006653E-1,3.978726196E-1,9.782307587E0,9.791129685E0
1.631405417E0,1.202000427E-1,3.854484558E-1,9.794582062E0,9.802900404E0
1.641451417E0,1.193019104E-1,3.781137085E-1,9.784552917E0,9.792582842E0
1.651496417E0,1.288819885E-1,3.776646423E-1,9.786798248E0,9.794930378E0
1.661542417E0,1.206491089E-1,3.622467041E-1,9.788893890E0,9.796337197E0
1.671587417E0,1.164578247E-1,3.469784546E-1,9.798923035E0,9.805755917E0
1.681633417E0,1.064286804E-1,3.402424622E-1,9.805958405E0,9.812436610E0
1.691678417E0,1.071771240E-1,3.614982605E-1,9.783654785E0,9.790917673E0
1.701724417E0,1.088237000E-1,3.740721130E-1,9.783505096E0,9.791258577E0
1.711769417E0,1.230441284E-1,3.775149536E-1,9.792636108E0,9.800682596E0
1.721814417E0,1.377136230E-1,3.821553040E-1,9.762398987E0,9.770846519E0
1.731860417E0,1.323248291E-1,3.924838257E-1,9.813442841E0,9.822179687E0
1.741905417E0,1.179547119E-1,4.031117249E-1,9.791737976E0,9.800742062E0
1.751951417E0,1.175056458E-1,4.035607910E-1,9.772727509E0,9.781762206E0
1.761996417E0,1.050814819E-1,3.911366272E-1,9.813592529E0,9.821946259E0
1.772042417E0,1.073268127E-1,3.858975220E-1,9.793833618E0,9.802020857E0
1.782087417E0,9.729766846E-2,3.670367432E-1,9.795180817E0,9.802537939E0
1.792132417E0,9.639953613E-2,3.620970154E-1,9.779313812E0,9.786489961E0
1.802178417E0,1.064286804E-1,3.549119568E-1,9.782008209E0,9.789023147E0
1.812223417E0,1.170565796E-1,3.460803223E-1,9.766141205E0,9.772972315E0
1.822269417E0,1.245410156E-1,3.529660034E-1,9.770931244E0,9.778097608E0
1.832314417E0,1.203497314E-1,3.568579102E-1,9.811496887E0,9.818722055E0
1.842360417E0,1.166075134E-1,3.603007507E-1,9.775272217E0,9.782605014E0
1.852405417E0,1.190025330E-1,3.875440979E-1,9.792187042E0,9.800575447E0
1.862451417E0,1.233435059E-1,3.806584167E-1,9.800719299E0,9.808884403E0
1.872496417E0,1.339714050E-1,4.032614136E-1,9.773176575E0,9.782410156E0
1.882541417E0,1.082249451E-1,4.028123474E-1,9.803862762E0,9.812731296E0
1.892587417E0,1.179547119E-1,3.888912964E-1,9.775870972E0,9.784314131E0
1.902632417E0,1.137634277E-1,3.915856934E-1,9.786349182E0,9.794841080E0
1.912678458E0,9.759704590E-2,3.845503235E-1,9.795180817E0,9.803212298E0
1.922723458E0,1.047821045E-1,3.754193115E-1,9.792636108E0,9.800389834E0
1.932769458E0,1.148112488E-1,3.674858093E-1,9.792486420E0,9.800051924E0
1.942814458E0,1.151106262E-1,3.519181824E-1,9.780810699E0,9.787816651E0
1.952859458E0,1.251397705E-1,3.478765869E-1,9.782756653E0,9.789739823E0
1.962905458E0,1.176553345E-1,3.653901672E-1,9.807604980E0,9.815114274E0
1.972950458E0,1.155596924E-1,3.576063538E-1,9.777667236E0,9.784886966E0
1.982996458E0,1.094224548E-1,3.728746033E-1,9.792187042E0,9.799894684E0
1.993041458E0,9.864486694E-2,3.808081055E-1,9.787097626E0,9.795000029E0
2.003087458E0,1.200503540E-1,3.900888062E-1,9.777517548E0,9.786032432E0
2.013132458E0,1.240919495E-1,3.896397400E-1,9.798174591E0,9.806703996E0
2.023178458E0,1.221459961E-1,3.770658875E-1,9.770931244E0,9.778967006E0
2.033223458E0,1.275347900E-1,3.864962769E-1,9.795929260E0,9.804380376E0
2.043268458E0,1.212478638E-1,3.839515686E-1,9.794731750E0,9.803004127E0
2.053314458E0,1.219963074E-1,3.754193115E-1,9.786199493E0,9.794157610E0
2.063359458E0,1.155596924E-1,3.688330078E-1,9.796827393E0,9.804448928E0
2.073405458E0,1.152603149E-1,3.492237854E-1,9.781858521E0,9.788768988E0
2.083450458E0,1.020877075E-1,3.616479492E-1,9.794881439E0,9.802087204E0
2.093496458E0,1.071771240E-1,3.713777161E-1,9.779613190E0,9.787248974E0
2.103541458E0,1.032852173E-1,3.594026184E-1,9.785900116E0,9.793042385E0
2.113587458E0,1.184037781E-1,3.600013733E-1,9.797875214E0,9.805201637E0
2.123632458E0,1.207987976E-1,3.833528137E-1,9.769434357E0,9.777699084E0
2.133677458E0,1.330732727E-1,3.918850708E-1,9.795929260E0,9.804667892E0
2.143723458E0,1.405577087E-1,3.926335144E-1,9.789492645E0,9.798371487E0
2.153768458E0,1.225950623E-1,3.818559265E-1,9.774972839E0,9.783196692E0
2.163814458E0,1.242416382E-1,3.784130859E-1,9.796528015E0,9.804621033E0
2.173859458E0,1.197509766E-1,3.576063538E-1,9.803264008E0,9.810515165E0
2.183905458E0,1.278341675E-1,3.606001282E-1,9.782906342E0,9.790384595E0
2.193950458E0,1.121168518E-1,3.579057312E-1,9.801767120E0,9.808940074E0
2.203995458E0,1.104702759E-1,3.460803223E-1,9.771679688E0,9.778430303E0
2.214041458E0,1.100212097E-1,3.570075989E-1,9.780661011E0,9.787792851E0
2.224086458E0,1.166075134E-1,3.631448364E-1,9.791288910E0,9.798714712E0
2.234132458E0,1.095721436E-1,3.781137085E-1,9.804162140E0,9.812062540E0
2.244177458E0,1.092727661E-1,3.761677551E-1,9.780810699E0,9.788651626E0
2.254223458E0,1.127156067E-1,3.855981445E-1,9.790690155E0,9.798928740E0
2.264268458E0,1.264869690E-1,3.844006348E-1,9.769284668E0,9.777662590E0
2.274314458E0,1.336720276E-1,3.860472107E-1,9.791139221E0,9.799658561E0
2.284359458E0,1.239422607E-1,3.770658875E-1,9.790390778E0,9.798433137E0
2.294404458E0,1.163081360E-1,3.821553040E-1,9.776320038E0,9.784477694E0
2.304450458E0,1.170565796E-1,3.857478333E-1,9.766739960E0,9.775055656E0
2.314495458E0,1.115180969E-1,3.713777161E-1,9.795929260E0,9.803600755E0
2.324541458E0,1.085243225E-1,3.646417236E-1,9.805060272E0,9.812438436E0
2.334586458E0,1.070274353E-1,3.622467041E-1,9.794881439E0,9.802162004E0
2.344632458E0,1.157093811E-1,3.659889221E-1,9.790690155E0,9.798211585E0
2.354677458E0,1.083746338E-1,3.643423462E-1,9.779313812E0,9.786698577E0
2.364723458E0,1.049317932E-1,3.697311401E-1,9.781409454E0,9.788957182E0
2.374768458E0,1.178050232E-1,3.796105957E-1,9.790091400E0,9.798156554E0
2.384813458E0,1.152603149E-1,3.656895447E-1,9.775721283E0,9.783237725E0
2.394859458E0,1.169068909E-1,3.806584167E-1,9.796078949E0,9.804169053E0
2.404904458E0,1.266366577E-1,3.736230469E-1,9.785451050E0,9.793399985E0
2.414950458E0,1.233435059E-1,3.505709839E-1,9.798623657E0,9.805668728E0
2.424995458E0,1.187031555E-1,3.501219177E-1,9.774074707E0,9.781063959E0
2.435041458E0,1.237925720E-1,3.719764709E-1,9.786049805E0,9.793899217E0
2.445086458E0,1.228944397E-1,3.851490784E-1,9.818831635E0,9.827151038E0
2.455132458E0,1.115180969E-1,3.704795837E-1,9.770482178E0,9.778139567E0
2.465177458E0,1.113684082E-1,3.715274048E-1,9.783804474E0,9.791489443E0
2.475222458E0,1.116677856E-1,3.611988831E-1,9.785900116E0,9.793200468E0
2.485268458E0,1.139131165E-1,3.629951477E-1,9.786049805E0,9.793442319E0
2.495313458E0,1.095721436E-1,3.775149536E-1,9.812844086E0,9.820714467E0
2.505359458E0,1.110690308E-1,3.818559265E-1,9.784253540E0,9.792332083E0
2.515404458E0,1.083746338E-1,3.852987671E-1,9.790690155E0,9.798867991E0
2.525450458E0,1.118174744E-1,3.929328918E-1,9.789492645E0,9.798013353E0
2.535495458E0,1.231938171E-1,3.860472107E-1,9.789193268E0,9.797576945E0
2.545541458E0,1.169068909E-1,3.918850708E-1,9.776918793E0,9.785467910E0
2.555586458E0,1.213975525E-1,3.887416077E-1,9.785750427E0,9.794221196E0
2.565631458E0,1.218466187E-1,3.737727356E-1,9.779762878E0,9.787661346E0
2.575677458E0,1.143621826E-1,3.631448364E-1,9.791588287E0,9.798987400E0
2.585722458E0,1.109193420E-1,3.656895447E-1,9.779912567E0,9.787375632E0
2.595768458E0,1.167572021E-1,3.620970154E-1,9.807455292E0,9.814831929E0
2.605813458E0,9.684860229E-2,3.790118408E-1,9.772428131E0,9.780254660E0
2.615859458E0,1.028361511E-1,3.833528137E-1,9.794582062E0,9.802620691E0
2.625904458E0,1.219963074E-1,3.854484558E-1,9.799521790E0,9.807858121E0
2.635949458E0,1.353186035E-1,3.632945251E-1,9.776918793E0,9.784601940E0
2.645995458E0,1.245410156E-1,3.766168213E-1,9.815987549E0,9.823999300E0
2.656040458E0,1.305285645E-1,3.748205566E-1,9.791588287E0,9.799629041E0
2.666086458E0,1.228944397E-1,3.715274048E-1,9.774523773E0,9.782354044E0
2.676131458E0,1.074765015E-1,3.864962769E-1,9.786498871E0,9.794717491E0
2.686177458E0,1.103205872E-1,3.686833191E-1,9.773925018E0,9.781498264E0
2.696222458E0,1.163081360E-1,3.814068604E-1,9.794582062E0,9.802695371E0
2.706268458E0,1.257385254E-1,3.643423462E-1,9.780960388E0,9.788551560E0
2.716313458E0,1.213975525E-1,3.649411011E-1,9.772577820E0,9.780142975E0
2.726358458E0,1.182540894E-1,3.779640198E-1,9.794731750E0,9.802734868E0
2.736404458E0,1.148112488E-1,3.900888062E-1,9.791139221E0,9.799579488E0
2.746449458E0,1.052311707E-1,3.779640198E-1,9.802515564E0,9.810363998E0
2.756495458E0,1.207987976E-1,3.724255371E-1,9.797126770E0,9.804947021E0
2.766540458E0,1.146615601E-1,3.716770935E-1,9.781559143E0,9.789289576E0
2.776586458E0,1.233435059E-1,3.555107117E-1,9.784852295E0,9.792085371E0
2.786631458E0,1.231938171E-1,3.601510620E-1,9.791737976E0,9.799133538E0
2.796677458E0,1.248403931E-1,3.727249146E-1,9.774523773E0,9.782424238E0
2.806722458E0,1.115180969E-1,3.653901672E-1,9.806407471E0,9.813846022E0
2.816767458E0,9.864486694E-2,3.719764709E-1,9.792336731E0,9.799895712E0
2.826813458E0,1.145118713E-1,3.736230469E-1,9.779014435E0,9.786819221E0
2.836858458E0,1.089733887E-1,3.791615295E-1,9.799072723E0,9.807011008E0
2.846904458E0,1.167572021E-1,3.863465881E-1,9.776469727E0,9.784797200E0
2.856949458E0,1.166075134E-1,3.872447205E-1,9.798324280E0,9.806666838E0
2.866995458E0,1.170565796E-1,3.875440979E-1,9.789642334E0,9.798009476E0
2.877040458E0,1.107696533E-1,3.827540588E-1,9.784253540E0,9.792363756E0
2.887086458E0,1.029858398E-1,3.758683777E-1,9.789492645E0,9.797247030E0
2.897131458E0,1.104702759E-1,3.725752258E-1,9.791288910E0,9.798997627E0
2.907177792E0,1.160087585E-1,3.746708679E-1,9.805509338E0,9.813350584E0
2.917222792E0,1.221459961E-1,3.686833191E-1,9.791588287E0,9.799288149E0
2.927267792E0,1.109193420E-1,3.552113342E-1,9.791139221E0,9.798208277E0
2.937313792E0,1.049317932E-1,3.737727356E-1,9.785001984E0,9.792700371E0
2.947358792E0,1.118174744E-1,3.643423462E-1,9.773326263E0,9.780754303E0
2.957404792E0,1.160087585E-1,3.788621521E-1,9.779762878E0,9.787786089E0
2.967449792E0,1.190025330E-1,3.787124634E-1,9.783654785E0,9.791704943E0
2.977495792E0,1.163081360E-1,3.817062378E-1,9.788145447E0,9.796275748E0
2.987540792E0,1.116677856E-1,3.746708679E-1,9.788145447E0,9.795950145E0
2.997586792E0,1.070274353E-1,3.794609070E-1,9.791737976E0,9.799672344E0
3.007631792E0,1.070274353E-1,3.863465881E-1,9.789193268E0,9.797398807E0
3.017676792E0,1.187031555E-1,3.788621521E-1,9.790091400E0,9.798138425E0
3.027722792E0,1.285826111E-1,3.623963928E-1,9.793085175E0,9.800631708E0
3.037767792E0,1.389111328E-1,3.683839417E-1,9.796677704E0,9.804585512E0
3.047813792E0,1.380130005E-1,3.632945251E-1,9.789193268E0,9.796904375E0
3.057858792E0,1.249900818E-1,3.556604004E-1,9.777667236E0,9.784931958E0
3.067904792E0,1.119671631E-1,3.661386108E-1,9.783205719E0,9.790694984E0
3.077949792E0,1.022373962E-1,3.917353821E-1,9.809550934E0,9.817901946E0
3.087995792E0,1.001417542E-1,3.957769775E-1,9.798473969E0,9.806975064E0
3.098040792E0,9.984237671E-2,3.754193115E-1,9.800419922E0,9.808115966E0
3.108085792E0,1.290316772E-1,3.803590393E-1,9.797725525E0,9.805954703E0
3.118131792E0,1.402583313E-1,3.727249146E-1,9.776320038E0,9.784427921E0
3.128176792E0,1.350192261E-1,3.589535522E-1,9.785900116E0,9.793412016E0
3.138222792E0,1.360670471E-1,3.709286499E-1,9.785451050E0,9.793424046E0
3.148267792E0,1.172062683E-1,3.757186890E-1,9.764943695E0,9.772872004E0
3.158313792E0,1.056802368E-1,3.649411011E-1,9.780211945E0,9.787588876E0
3.168358792E0,1.007405090E-1,3.544628906E-1,9.793683929E0,9.800614139E0
3.178404792E0,9.999206543E-2,3.613485718E-1,9.784103851E0,9.791284869E0
3.188449792E0,1.056802368E-1,3.495231628E-1,9.777367859E0,9.784184023E0
3.198494792E0,1.131646729E-1,3.606001282E-1,9.774823151E0,9.782126881E0
3.208540792E0,1.181044006E-1,3.778143311E-1,9.788295135E0,9.796295932E0
3.218585792E0,1.092727661E-1,3.784130859E-1,9.795929260E0,9.803844505E0
3.228631792E0,1.197509766E-1,3.902384949E-1,9.807455292E0,9.815946499E0
3.238676792E0,1.157093811E-1,3.929328918E-1,9.789642334E0,9.798208099E0
3.248722792E0,1.146615601E-1,4.020639038E-1,9.791737976E0,9.800659939E0
3.258767792E0,1.279838562E-1,4.005670166E-1,9.792636108E0,9.801660867E0
3.268813792E0,1.227447510E-1,3.930825806E-1,9.782756653E0,9.791420118E0
3.278858792E0,1.118174744E-1,3.876937866E-1,9.782457275E0,9.790775248E0
3.288904792E0,1.038839722E-1,3.591032410E-1,9.778265991E0,9.785409180E0
3.298949792E0,9.819580078E-2,3.568579102E-1,9.790091400E0,9.797085261E0
3.308994792E0,1.067280579E-1,3.561094666E-1,9.780810699E0,9.787873251E0
3.319040792E0,1.127156067E-1,3.469784546E-1,9.790390778E0,9.797185843E0
3.329085792E0,1.020877075E-1,3.716770935E-1,9.797575836E0,9.805154666E0
3.339131792E0,1.014889526E-1,3.888912964E-1,9.785151672E0,9.793402356E0
3.349176792E0,1.196012878E-1,3.923341370E-1,9.794282684E0,9.802867124E0
3.359222792E0,1.215472412E-1,3.800596619E-1,9.795330505E0,9.803454431E0
3.369267792E0,1.353186035E-1,3.827540588E-1,9.792336731E0,9.800748464E0
3.379313792E0,1.410067749E-1,3.805087280E-1,9.772278442E0,9.780700167E0
3.389358792E0,1.450483704E-1,3.812571716E-1,9.789342957E0,9.797838108E0
3.399403792E0,1.396595764E-1,3.667373657E-1,9.808802490E0,9.816649499E0
3.409449792E0,1.154100037E-1,3.647914124E-1,9.775421906E0,9.782906811E0
3.419494792E0,9.430389404E-2,3.710783386E-1,9.800719299E0,9.808195101E0
3.429540792E0,1.049317932E-1,3.778143311E-1,9.789492645E0,9.797342528E0
3.439585792E0,1.071771240E-1,3.649411011E-1,9.780960388E0,9.788353031E0
3.449631792E0,1.121168518E-1,3.775149536E-1,9.783056030E0,9.790979166E0
3.459676792E0,1.172062683E-1,3.632945251E-1,9.773775330E0,9.781227143E0
3.469722792E0,1.137634277E-1,3.743714905E-1,9.769284668E0,9.777117114E0
3.479767792E0,1.116677856E-1,3.918850708E-1,9.800270233E0,9.808737954E0
3.489812792E0,1.064286804E-1,3.969744873E-1,9.774972839E0,9.783609243E0
3.499858792E0,1.176553345E-1,3.879931641E-1,9.783954163E0,9.792351124E0
3.509903792E0,1.199006653E-1,3.920347595E-1,9.790989532E0,9.799568534E0
3.519949792E0,1.402583313E-1,3.778143311E-1,9.783355408E0,9.791652522E0
3.529994792E0,1.460961914E-1,3.655398560E-1,9.786498871E0,9.794412878E0
3.540040792E0,1.380130005E-1,3.457809448E-1,9.765243073E0,9.772337710E0
3.550085792E0,1.270857239E-1,3.604504395E-1,9.788295135E0,9.795754027E0
3.560131792E0,1.202000427E-1,3.688330078E-1,9.804012451E0,9.811684156E0
3.570176792E0,1.011895752E-1,3.592529297E-1,9.779014435E0,9.786134340E0
3.580222792E0,9.310638428E-2,3.628454590E-1,9.767787781E0,9.774968223E0
3.590267792E0,7.559280396E-2,3.588038635E-1,9.792486420E0,9.799349201E0
3.600312792E0,9.445358276E-2,3.546125793E-1,9.797276459E0,9.804146958E0
3.610358792E0,1.002914429E-1,3.570075989E-1,9.777367859E0,9.784397531E0
3.620403792E0,1.267863464E-1,3.519181824E-1,9.793534241E0,9.800675186E0
3.630449792E0,1.419049072E-1,3.827540588E-1,9.778715057E0,9.787231776E0
3.640494792E0,1.451980591E-1,3.791615295E-1,9.796078949E0,9.804489212E0
3.650540792E0,1.451980591E-1,3.927832031E-1,9.784552917E0,9.793509939E0
3.660585792E0,1.417552185E-1,3.833528137E-1,9.773026886E0,9.781569835E0
3.670631792E0,1.291813660E-1,3.927832031E-1,9.792336731E0,9.801062449E0
3.680676792E0,1.225950623E-1,3.788621521E-1,9.774224396E0,9.782332473E0
3.690722792E0,1.079255676E-1,3.754193115E-1,9.789342957E0,9.797133413E0
3.700767792E0,9.804611206E-2,3.608995056E-1,9.781708832E0,9.788855355E0
3.710812792E0,8.741821289E-2,3.531156921E-1,9.768685913E0,9.775456874E0
3.720858792E0,8.756790161E-2,3.474275208E-1,9.793983307E0,9.800534834E0
3.730903792E0,9.654922485E-2,3.544628906E-1,9.759255524E0,9.766167829E0
3.740949792E0,1.068777466E-1,3.662882996E-1,9.805958405E0,9.813379143E0
3.750994792E0,1.260379028E-1,3.924838257E-1,9.773775330E0,9.782464582E0
3.761040792E0,1.243913269E-1,3.872447205E-1,9.797126770E0,9.805566002E0
3.771085792E0,1.089733887E-1,3.841012573E-1,9.816286926E0,9.824403188E0
3.781131792E0,1.059796143E-1,3.866459656E-1,9.789492645E0,9.797698354E0
3.791176792E0,1.134640503E-1,3.776646423E-1,9.794582062E0,9.802517148E0
3.801221792E0,1.302291870E-1,3.658392334E-1,9.785900116E0,9.793601945E0
3.811267792E0,1.441502380E-1,3.567082214E-1,9.795031128E0,9.802584090E0
3.821312792E0,1.258882141E-1,3.628454590E-1,9.789492645E0,9.797023575E0
3.831358792E0,1.435514832E-1,3.733236694E-1,9.787397003E0,9.795566226E0
3.841403792E0,1.094224548E-1,3.746708679E-1,9.802365875E0,9.810133959E0
3.851449792E0,1.041833496E-1,3.700305176E-1,9.799072723E0,9.806610168E0
3.861494792E0,9.565109253E-2,3.712280273E-1,9.794731750E0,9.802230840E0
3.871540792E0,9.370513916E-2,3.860472107E-1,9.792935486E0,9.800989671E0
3.881585792E0,1.113684082E-1,3.721261597E-1,9.787696381E0,9.795401025E0
3.891631792E0,1.212478638E-1,3.727249146E-1,9.788295135E0,9.796139370E0
3.901676792E0,1.221459961E-1,3.796105957E-1,9.796528015E0,9.804640993E0
3.911721792E0,1.252894592E-1,3.781137085E-1,9.793085175E0,9.801182820E0
3.921767792E0,1.272354126E-1,3.650907898E-1,9.799072723E0,9.806697016E0
3.931812792E0,1.287322998E-1,3.697311401E-1,9.790390778E0,9.798215383E0
3.941858792E0,1.103205872E-1,3.420387268E-1,9.784253540E0,9.790851774E0
3.951903792E0,1.046324158E-1,3.600013733E-1,9.787696381E0,9.794873627E0
3.961949792E0,1.046324158E-1,3.603007507E-1,9.793683929E0,9.800867792E0
3.971994792E0,1.190025330E-1,3.632945251E-1,9.779613190E0,9.787082234E0
3.982040792E0,1.106199646E-1,3.793112183E-1,9.779463501E0,9.787441961E0
3.992085792E0,1.019380188E-1,3.875440979E-1,9.786798248E0,9.794998813E0
4.002131792E0,1.245410156E-1,3.965254211E-1,9.799671478E0,9.808481226E0
4.012176792E0,1.234931946E-1,3.900888062E-1,9.795929260E0,9.804470915E0
4.022221792E0,1.118174744E-1,3.748205566E-1,9.792336731E0,9.800145522E0
4.032267792E0,1.062789917E-1,3.626957703E-1,9.783654785E0,9.790952170E0
4.042312792E0,1.291813660E-1,3.643423462E-1,9.789193268E0,9.796822853E0
4.052358792E0,1.178050232E-1,3.637435913E-1,9.789792023E0,9.797255497E0
4.062403792E0,1.233435059E-1,3.564088440E-1,9.798473969E0,9.805729600E0
4.072449792E0,1.082249451E-1,3.623963928E-1,9.798024902E0,9.805321809E0
4.082494792E0,1.207987976E-1,3.673361206E-1,9.778116302E0,9.785759378E0
4.092540792E0,1.062789917E-1,3.793112183E-1,9.780810699E0,9.788739968E0
4.102585792E0,1.086740112E-1,3.781137085E-1,9.775870972E0,9.783784200E0
4.112631792E0,1.169068909E-1,3.881428528E-1,9.785151672E0,9.793544575E0
4.122676792E0,1.246907043E-1,3.869453430E-1,9.796078949E0,9.804511066E0
4.132721792E0,1.267863464E-1,3.838018799E-1,9.779762878E0,9.788112209E0
4.142767792E0,1.228944397E-1,3.721261597E-1,9.792037354E0,9.799876349E0
4.152812792E0,1.124162292E-1,3.734733582E-1,9.781858521E0,9.789631039E0
4.162858792E0,1.095721436E-1,3.746708679E-1,9.783654785E0,9.791439387E0
4.172903792E0,1.110690308E-1,3.547622681E-1,9.806557159E0,9.813600558E0
4.182949792E0,8.442443848E-2,3.541635132E-1,9.768236847E0,9.775019712E0
4.192994792E0,1.049317932E-1,3.540138245E-1,9.804611206E0,9.811561414E0
4.203040792E0,1.127156067E-1,3.576063538E-1,9.791288910E0,9.798465473E0
4.213085792E0,1.148112488E-1,3.848497009E-1,9.787097626E0,9.795334137E0
4.223131792E0,1.091230774E-1,3.838018799E-1,9.791438599E0,9.799565376E0
4.233176792E0,1.260379028E-1,4.052073669E-1,9.791139221E0,9.800330903E0
4.243221792E0,1.419049072E-1,3.932322693E-1,9.780661011E0,9.789591331E0
4.253267792E0,1.305285645E-1,3.827540588E-1,9.755064240E0,9.763442871E0
4.263312792E0,1.251397705E-1,3.845503235E-1,9.786798248E0,9.795149762E0
4.273358792E0,1.109193420E-1,3.797602844E-1,9.785001984E0,9.792996722E0
4.283403792E0,1.064286804E-1,3.710783386E-1,9.786498871E0,9.794109778E0
4.293449792E0,9.669891357E-2,3.632945251E-1,9.790690155E0,9.797905251E0
4.303494792E0,1.055305481E-1,3.576063538E-1,9.784403229E0,9.791504764E0
4.313540792E0,9.325607300E-2,3.553610229E-1,9.790540466E0,9.797431336E0
4.323585792E0,1.143621826E-1,3.655398560E-1,9.785900116E0,9.793392628E0
4.333631792E0,1.296304321E-1,3.561094666E-1,9.783505096E0,9.790842148E0
4.343676792E0,1.215472412E-1,3.785627747E-1,9.783804474E0,9.791879977E0
4.353721792E0,1.109193420E-1,3.686833191E-1,9.771529999E0,9.779111872E0
4.363767792E0,1.058299255E-1,3.778143311E-1,9.800569611E0,9.808420277E0
4.373812792E0,1.140628052E-1,3.815565491E-1,9.796677704E0,9.804768725E0
4.383858792E0,1.088237000E-1,3.833528137E-1,9.777667236E0,9.785784514E0
4.393903792E0,1.297801208E-1,3.797602844E-1,9.777218170E0,9.785451236E0
4.403949792E0,1.311273193E-1,3.716770935E-1,9.778864746E0,9.786804073E0
4.413994792E0,1.215472412E-1,3.662882996E-1,9.766440582E0,9.774062743E0
4.424040792E0,1.070274353E-1,3.790118408E-1,9.796677704E0,9.804590704E0
4.434085792E0,1.080752563E-1,3.785627747E-1,9.806557159E0,9.814456345E0
4.444131792E0,9.145980835E-2,3.790118408E-1,9.775272217E0,9.783044607E0
4.454176792E0,9.729766846E-2,3.619473267E-1,9.788744202E0,9.795916790E0
4.464222792E0,1.047821045E-1,3.516188049E-1,9.781559143E0,9.788437789E0
4.474267792E0,1.122665405E-1,3.655398560E-1,9.796827393E0,9.804287334E0
4.484312792E0,1.317260742E-1,3.746708679E-1,9.799072723E0,9.807117632E0
4.494358792E0,1.240919495E-1,3.808081055E-1,9.775571594E0,9.783772975E0
4.504403792E0,1.128652954E-1,3.890409851E-1,9.792486420E0,9.800861276E0
4.514449792E0,1.053808594E-1,3.823049927E-1,9.800719299E0,9.808739013E0
4.524494792E0,1.255888367E-1,3.920347595E-1,9.780661011E0,9.789320386E0
4.534540792E0,1.257385254E-1,3.870950317E-1,9.794881439E0,9.803333879E0
4.544585792E0,1.264869690E-1,3.674858093E-1,9.782457275E0,9.790174417E0
4.554631792E0,1.190025330E-1,3.598516846E-1,9.789792023E0,9.797126246E0
4.564676792E0,1.242416382E-1,3.616479492E-1,9.776320038E0,9.783795721E0
4.574722792E0,1.104702759E-1,3.662882996E-1,9.795330505E0,9.802799116E0
4.584767792E0,1.004411316E-1,3.631448364E-1,9.796977081E0,9.804219629E0
4.594812792E0,1.191522217E-1,3.564088440E-1,9.792486420E0,9.799694628E0
4.604858792E0,1.193019104E-1,3.577560425E-1,9.783954163E0,9.791219607E0
4.614903792E0,1.221459961E-1,3.625460815E-1,9.797725525E0,9.805191725E0
4.624949792E0,1.248403931E-1,3.712280273E-1,9.785451050E0,9.793285844E0
4.634994792E0,1.260379028E-1,3.905378723E-1,9.800120544E0,9.808708787E0
4.645040792E0,1.154100037E-1,3.873944092E-1,9.776020660E0,9.784373963E0
4.655085792E0,1.128652954E-1,3.844006348E-1,9.790091400E0,9.798285158E0
4.665131792E0,1.011895752E-1,3.917353821E-1,9.799671478E0,9.808020036E0
4.675176792E0,1.115180969E-1,3.948788452E-1,9.761949921E0,9.770569678E0
4.685222792E0,1.071771240E-1,3.743714905E-1,9.776170349E0,9.783922917E0
4.695267792E0,1.137634277E-1,3.646417236E-1,9.773925018E0,9.781386199E0
4.705312792E0,1.194515991E-1,3.643423462E-1,9.786498871E0,9.794007054E0
4.715358792E0,1.172062683E-1,3.541635132E-1,9.801018677E0,9.808115834E0
4.725403792E0,1.071771240E-1,3.567082214E-1,9.779313812E0,9.786404157E0
4.735449792E0,1.119671631E-1,3.733236694E-1,9.776769104E0,9.784534803E0
4.745494792E0,1.240919495E-1,3.716770935E-1,9.788594513E0,9.796434311E0
4.755540792E0,1.011895752E-1,3.839515686E-1,9.783056030E0,9.791110429E0
4.765585792E0,1.074765015E-1,3.939807129E-1,9.774224396E0,9.782751890E0
4.775631792E0,1.091230774E-1,3.885919189E-1,9.782457275E0,9.790780453E0
4.785676792E0,1.209484863E-1,3.824546814E-1,9.800569611E0,9.808774888E0
4.795722792E0,1.055305481E-1,3.906875610E-1,9.759105835E0,9.767493034E0
4.805767792E0,8.981323242E-2,3.890409851E-1,9.805359650E0,9.813485475E0
4.815813792E0,1.008901978E-1,4.004173279E-1,9.800270233E0,9.808965772E0
4.825858792E0,1.157093811E-1,3.725752258E-1,9.772128754E0,9.779913156E0
4.835903792E0,1.228944397E-1,3.767665100E-1,9.782906342E0,9.790930116E0
4.845949792E0,1.408570862E-1,3.629951477E-1,9.800270233E0,9.808001980E0
4.855994792E0,1.398092651E-1,3.439846802E-1,9.790989532E0,9.798027767E0
4.866040792E0,1.287322998E-1,3.498225403E-1,9.783205719E0,9.790304487E0
4.876085792E0,1.219963074E-1,3.571572876E-1,9.783056030E0,9.790333484E0
4.886131792E0,8.262817383E-2,3.689826965E-1,9.770631866E0,9.777945731E0
4.896176792E0,7.499404907E-2,3.743714905E-1,9.774823151E0,9.782277125E0
4.906222792E0,9.250762939E-2,3.733236694E-1,9.805209961E0,9.812750410E0
4.916267417E0,1.056802368E-1,3.870950317E-1,9.780211945E0,9.788439945E0
4.926313417E0,1.389111328E-1,3.875440979E-1,9.784702606E0,9.793359578E0
4.936358417E0,1.327738953E-1,3.761677551E-1,9.790091400E0,9.798215180E0
4.946403417E0,1.392105103E-1,3.844006348E-1,9.777367859E0,9.785911591E0
4.956449417E0,1.513352966E-1,3.833528137E-1,9.784403229E0,9.793079612E0
4.966494417E0,1.191522217E-1,3.848497009E-1,9.770332489E0,9.778635053E0
4.976540417E0,1.071771240E-1,3.673361206E-1,9.786199493E0,9.793677720E0
4.986585417E0,9.774673462E-2,3.769161987E-1,9.786947937E0,9.794690917E0
4.996631417E0,1.037342834E-1,3.725752258E-1,9.796078949E0,9.803710312E0
5.006676417E0,9.535171509E-2,3.537144470E-1,9.803413696E0,9.810256162E0
5.016722417E0,1.038839722E-1,3.589535522E-1,9.775571594E0,9.782711256E0
5.026767417E0,1.302291870E-1,3.614982605E-1,9.785600739E0,9.793141603E0
5.036813417E0,1.368154907E-1,3.637435913E-1,9.800868988E0,9.808570783E0
5.046858417E0,1.365161133E-1,3.668870544E-1,9.767039337E0,9.774881082E0
5.056904417E0,1.127156067E-1,3.911366272E-1,9.773176575E0,9.781649811E0
5.066949417E0,1.137634277E-1,4.108955383E-1,9.812844086E0,9.822101929E0
5.076995417E0,1.029858398E-1,4.028123474E-1,9.785301361E0,9.794130211E0
5.087040417E0,1.191522217E-1,3.694317627E-1,9.786498871E0,9.794194057E0
5.097085417E0,1.178050232E-1,3.595523071E-1,9.779164124E0,9.786480820E0
5.107131417E0,1.228944397E-1,3.695814514E-1,9.805359650E0,9.813091834E0
5.117176417E0,1.321751404E-1,3.471281433E-1,9.783505096E0,9.790553620E0
5.127222417E0,1.260379028E-1,3.610491943E-1,9.780361633E0,9.787835090E0
5.137267417E0,8.861572266E-2,3.739224243E-1,9.794582062E0,9.802117551E0
5.147313417E0,1.026864624E-1,3.662882996E-1,9.780211945E0,9.787607333E0
5.157358417E0,1.037342834E-1,3.673361206E-1,9.792336731E0,9.799773226E0
5.167404417E0,1.230441284E-1,3.643423462E-1,9.791887665E0,9.799436170E0
5.177449417E0,1.184037781E-1,3.629951477E-1,9.781708832E0,9.789157911E0
5.187495417E0,1.290316772E-1,3.811074829E-1,9.803862762E0,9.812115835E0
5.197540417E0,1.233435059E-1,3.932322693E-1,9.795779572E0,9.804445046E0
5.207586417E0,1.014889526E-1,4.062551880E-1,9.800868988E0,9.809810202E0
5.217631417E0,1.222956848E-1,3.921844482E-1,9.789642334E0,9.798258106E0
5.227676417E0,1.109193420E-1,3.881428528E-1,9.778415680E0,9.786744667E0
5.237722417E0,1.264869690E-1,3.770658875E-1,9.786798248E0,9.794876089E0
5.247767417E0,1.276844788E-1,3.534150696E-1,9.793534241E0,9.800740710E0
5.257813417E0,1.249900818E-1,3.522175598E-1,9.795330505E0,9.802457826E0
5.267858417E0,1.354682922E-1,3.338058472E-1,9.766590271E0,9.773231990E0
5.277904417E0,1.016386414E-1,3.457809448E-1,9.774823151E0,9.781465253E0
5.287949417E0,1.008901978E-1,3.662882996E-1,9.805060272E0,9.812418300E0
5.297995417E0,1.106199646E-1,3.638932800E-1,9.783205719E0,9.790595959E0
5.308040417E0,1.094224548E-1,3.653901672E-1,9.795330505E0,9.802753846E0
5.318086417E0,1.287322998E-1,3.900888062E-1,9.789043579E0,9.797658673E0
5.328131417E0,1.453477478E-1,3.802093506E-1,9.798473969E0,9.806924963E0
5.338176417E0,1.392105103E-1,3.779640198E-1,9.768985291E0,9.777285409E0
5.348222417E0,1.419049072E-1,3.781137085E-1,9.772278442E0,9.780620274E0
5.358267417E0,1.215472412E-1,3.849993896E-1,9.805060272E0,9.813368698E0
5.368313417E0,1.085243225E-1,3.836521912E-1,9.774374084E0,9.782502506E0
5.378358417E0,9.071136475E-2,3.740721130E-1,9.778265991E0,9.785838967E0
5.388404417E0,8.951385498E-2,3.643423462E-1,9.787397003E0,9.794585146E0
5.398449417E0,9.894424438E-2,3.492237854E-1,9.774823151E0,9.781559939E0
5.408495417E0,1.062789917E-1,3.620970154E-1,9.792187042E0,9.799455931E0
5.418540417E0,1.267863464E-1,3.589535522E-1,9.777667236E0,9.785075320E0
5.428586417E0,1.245410156E-1,3.667373657E-1,9.797126770E0,9.804779432E0
5.438631417E0,1.336720276E-1,3.670367432E-1,9.787397003E0,9.795188833E0
5.448677417E0,1.342707825E-1,3.676354980E-1,9.775721283E0,9.783553092E0
5.458722417E0,1.216969299E-1,3.897894287E-1,9.797725525E0,9.806231254E0
5.468768417E0,1.182540894E-1,3.887416077E-1,9.786648560E0,9.795080096E0
5.478813417E0,1.152603149E-1,3.802093506E-1,9.781110077E0,9.789175574E0
5.488858417E0,1.212478638E-1,3.743714905E-1,9.791139221E0,9.799043949E0
5.498904417E0,1.095721436E-1,3.712280273E-1,9.812395020E0,9.820026086E0
5.508949417E0,1.218466187E-1,3.817062378E-1,9.787097626E0,9.795296125E0
5.518995417E0,1.053808594E-1,3.805087280E-1,9.776320038E0,9.784289729E0
5.529040417E0,9.520202637E-2,3.784130859E-1,9.811646576E0,9.819402651E0
5.539086417E0,1.025367737E-1,3.806584167E-1,9.781858521E0,9.789799320E0
5.549131417E0,1.164578247E-1,3.817062378E-1,9.780511322E0,9.788649743E0
5.559177417E0,1.199006653E-1,3.733236694E-1,9.786049805E0,9.793902057E0
5.569222417E0,1.239422607E-1,3.632945251E-1,9.788893890E0,9.796417110E0
5.579268417E0,1.270857239E-1,3.620970154E-1,9.808503113E0,9.816007251E0
5.589313417E0,1.145118713E-1,3.873944092E-1,9.802216187E0,9.810536660E0
5.599359417E0,1.137634277E-1,3.945794678E-1,9.796977081E0,9.805579789E0
5.609404417E0,1.242416382E-1,3.851490784E-1,9.790091400E0,9.798452195E0
5.619450417E0,1.193019104E-1,3.812571716E-1,9.792785797E0,9.800930754E0
5.629495417E0,1.423539734E-1,3.808081055E-1,9.806407471E0,9.814830969E0
5.639540417E0,1.324745178E-1,3.538641357E-1,9.788444824E0,9.795734858E0
5.649586417E0,1.255888367E-1,3.573069763E-1,9.797426147E0,9.804743747E0
5.659631417E0,1.155596924E-1,3.577560425E-1,9.781708832E0,9.788931050E0
5.669677417E0,1.016386414E-1,3.432362366E-1,9.787696381E0,9.794240244E0
5.679722417E0,9.849517822E-2,3.526666260E-1,9.795180817E0,9.802022357E0
5.689768417E0,9.744735718E-2,3.532653809E-1,9.781858521E0,9.788720475E0
5.699813417E0,1.073268127E-1,3.635939026E-1,9.812844086E0,9.820164389E0
5.709859417E0,1.109193420E-1,3.579057312E-1,9.778864746E0,9.786040841E0
5.719904417E0,1.143621826E-1,3.772155762E-1,9.786049805E0,9.793984944E0
5.729950417E0,1.163081360E-1,3.803590393E-1,9.799372101E0,9.807440754E0
5.739995417E0,1.200503540E-1,3.890409851E-1,9.791288910E0,9.799750175E0
5.750041417E0,1.176553345E-1,3.960763550E-1,9.795480194E0,9.804190507E0
5.760086417E0,1.246907043E-1,3.939807129E-1,9.786498871E0,9.795219687E0
5.770131417E0,1.258882141E-1,3.835025024E-1,9.778715057E0,9.787041953E0
5.780177417E0,1.248403931E-1,3.802093506E-1,9.790540466E0,9.798715574E0
5.790222417E0,1.291813660E-1,3.763174438E-1,9.781858521E0,9.789946821E0
5.800268417E0,1.224453735E-1,3.640429688E-1,9.802066498E0,9.809588563E0
5.810313417E0,1.236428833E-1,3.585044861E-1,9.790390778E0,9.797732626E0
5.820359417E0,1.055305481E-1,3.540138245E-1,9.773775330E0,9.780753891E0
5.830404417E0,1.121168518E-1,3.728746033E-1,9.811347198E0,9.819070196E0
5.840450417E0,1.245410156E-1,3.737727356E-1,9.791288910E0,9.799211960E0
5.850495417E0,1.043330383E-1,3.727249146E-1,9.785451050E0,9.793102751E0
5.860541417E0,1.203497314E-1,3.832031250E-1,9.782606964E0,9.790849182E0
5.870586417E0,1.104702759E-1,3.766168213E-1,9.771380310E0,9.779259536E0
5.880632417E0,9.654922485E-2,3.906875610E-1,9.810299377E0,9.818550422E0
5.890677417E0,8.472381592E-2,3.986210632E-1,9.758656769E0,9.767162270E0
5.900723417E0,1.043330383E-1,3.704795837E-1,9.789193268E0,9.796756879E0
5.910768667E0,1.112187195E-1,3.550616455E-1,9.829758911E0,9.836798190E0
5.920813667E0,1.305285645E-1,3.462300110E-1,9.780361633E0,9.787358510E0
5.930859667E0,1.197509766E-1,3.378474426E-1,9.795480194E0,9.802036188E0
5.940904667E0,1.270857239E-1,3.489244080E-1,9.796977081E0,9.804012391E0
5.950950667E0,1.493893433E-1,3.606001282E-1,9.816286926E0,9.824043905E0
5.960995667E0,1.502874756E-1,3.552113342E-1,9.774673462E0,9.782280036E0
5.971041667E0,1.272354126E-1,3.637435913E-1,9.800569611E0,9.808142686E0
5.981086667E0,1.194515991E-1,3.568579102E-1,9.785301361E0,9.792534860E0
5.991132667E0,1.167572021E-1,3.623963928E-1,9.822424164E0,9.829800600E0
6.001177667E0,1.008901978E-1,3.433859253E-1,9.795330505E0,9.801866783E0
6.011223667E0,9.864486694E-2,3.594026184E-1,9.820927277E0,9.827996420E0
6.021268667E0,9.400451660E-2,3.709286499E-1,9.766889648E0,9.774382759E0
6.031314667E0,1.127156067E-1,3.915856934E-1,9.767488403E0,9.775984547E0
6.041359667E0,1.137634277E-1,3.658392334E-1,9.816885681E0,9.824358755E0
6.051405667E0,1.068777466E-1,3.620970154E-1,9.735455017E0,9.742772782E0
6.061450667E0,9.340576172E-2,3.811074829E-1,9.772877197E0,9.780751314E0
6.071495667E0,8.367599487E-2,4.155358887E-1,9.821825409E0,9.830967710E0
6.081541667E0,1.037342834E-1,4.071533203E-1,9.761051788E0,9.770090411E0
6.091586667E0,9.984237671E-2,3.737727356E-1,9.785750427E0,9.793395018E0
6.101632667E0,9.205856323E-2,3.653901672E-1,9.796228638E0,9.803472868E0
6.111677667E0,1.100212097E-1,3.773652649E-1,9.782606964E0,9.790500918E0
6.121723667E0,9.804611206E-2,3.436853027E-1,9.793983307E0,9.800502112E0
6.131768667E0,1.088237000E-1,3.487747192E-1,9.777068481E0,9.783892604E0
6.141814667E0,1.181044006E-1,3.724255371E-1,9.761201477E0,9.769017540E0
6.151859667E0,1.381626892E-1,3.903881836E-1,9.795480194E0,9.804229908E0
6.161905667E0,1.405577087E-1,4.161346436E-1,9.819430389E0,9.829249091E0
6.171950667E0,1.197509766E-1,4.111949158E-1,9.787397003E0,9.796762815E0
6.181996667E0,1.097218323E-1,3.981719971E-1,9.801467743E0,9.810165632E0
6.192041667E0,8.532257080E-2,3.745211792E-1,9.769733734E0,9.777281999E0
6.202087667E0,6.586303711E-2,3.565585327E-1,9.761201477E0,9.767933569E0
6.212132667E0,7.379653931E-2,3.216810608E-1,9.775721283E0,9.781290878E0
6.222178667E0,9.699829102E-2,3.311114502E-1,9.795929260E0,9.802003547E0
6.232223667E0,9.819580078E-2,3.320095825E-1,9.788444824E0,9.794566088E0
6.242268667E0,1.202000427E-1,3.338058472E-1,9.773176575E0,9.779614244E0
6.252314667E0,1.381626892E-1,3.549119568E-1,9.817783813E0,9.825168214E0
6.262359667E0,1.404080200E-1,3.670367432E-1,9.776170349E0,9.784065468E0
6.272405667E0,1.311273193E-1,3.791615295E-1,9.788594513E0,9.796812766E0
6.282450667E0,1.212478638E-1,3.960763550E-1,9.782157898E0,9.790923892E0
6.292496667E0,1.059796143E-1,3.875440979E-1,9.781708832E0,9.789956577E0
6.302541667E0,1.028361511E-1,3.891906738E-1,9.775421906E0,9.783706766E0
6.312587667E0,1.049317932E-1,3.784130859E-1,9.780810699E0,9.788690673E0
6.322632667E0,1.109193420E-1,3.682342529E-1,9.806557159E0,9.814095113E0
6.332678667E0,1.008901978E-1,3.646417236E-1,9.780810699E0,9.788125477E0
6.342723667E0,8.158035278E-2,3.453318787E-1,9.792486420E0,9.798913192E0
6.352769667E0,7.679031372E-2,3.489244080E-1,9.801916809E0,9.808425874E0
6.362814667E0,8.502319336E-2,3.526666260E-1,9.794132996E0,9.800849138E0
6.372860667E0,7.738906860E-2,3.603007507E-1,9.782606964E0,9.789545685E0
6.382905667E0,9.041198730E-2,3.728746033E-1,9.796228638E0,9.803739354E0
6.392950667E0,1.130149841E-1,3.540138245E-1,9.803713074E0,9.810753702E0
6.402996667E0,1.326242065E-1,3.658392334E-1,9.799970856E0,9.807693730E0
6.413041667E0,1.420545959E-1,3.724255371E-1,9.798174591E0,9.806278887E0
6.423087667E0,1.384620667E-1,3.698808289E-1,9.793833618E0,9.801793740E0
6.433132667E0,1.243913269E-1,3.710783386E-1,9.787247314E0,9.795069287E0
6.443178667E0,1.269360352E-1,3.426374817E-1,9.785301361E0,9.792121115E0
6.453223667E0,1.218466187E-1,3.312611389E-1,9.801318054E0,9.807671290E0
6.463269667E0,7.020401001E-2,3.963757324E-1,9.801168365E0,9.809431362E0
6.473314667E0,9.939331055E-2,3.520678711E-1,9.699080658E0,9.705977356E0
6.483360667E0,1.046324158E-1,3.598516846E-1,9.811496887E0,9.818651249E0
6.493405667E0,1.170565796E-1,3.641926575E-1,9.825417938E0,9.832862055E0
6.503451667E0,1.106199646E-1,3.668870544E-1,9.747579803E0,9.755109170E0
6.513496667E0,1.050814819E-1,3.863465881E-1,9.780661011E0,9.788852620E0
6.523542667E0,1.182540894E-1,3.872447205E-1,9.773475952E0,9.781859470E0
6.533587667E0,1.372645569E-1,3.701802063E-1,9.769584045E0,9.777558354E0
6.543633667E0,1.844165039E-1,3.350033569E-1,9.798773346E0,9.806232497E0
6.553678667E0,1.453477478E-1,3.742218018E-1,9.838291168E0,9.846478611E0
6.563724667E0,1.109193420E-1,4.058061218E-1,9.782307587E0,9.791349418E0
6.573769667E0,8.158035278E-2,3.990701294E-1,9.784552917E0,9.793027526E0
6.583814667E0,7.005432129E-2,3.836521912E-1,9.799521790E0,9.807279129E0
6.593860667E0,6.960525513E-2,3.832031250E-1,9.762848053E0,9.770613677E0
6.603905667E0,8.427474976E-2,3.561094666E-1,9.770931244E0,9.777781628E0
6.613951667E0,1.035845947E-1,3.538641357E-1,9.788145447E0,9.795087589E0
6.623996667E0,1.496887207E-1,3.511697388E-1,9.761949921E0,9.769411095E0
6.634042667E0,1.474433899E-1,3.505709839E-1,9.798923035E0,9.806300638E0
6.644087667E0,1.257385254E-1,3.603007507E-1,9.826465759E0,9.833872896E0
6.654133667E0,1.221459961E-1,3.683839417E-1,9.782307587E0,9.790003478E0
6.664178667E0,1.088237000E-1,3.644920349E-1,9.798773346E0,9.806153993E0
6.674224667E0,1.065783691E-1,3.558100891E-1,9.786049805E0,9.793096065E0
6.684269667E0,1.179547119E-1,3.582051086E-1,9.746531982E0,9.753825398E0
6.694315667E0,1.050814819E-1,3.644920349E-1,9.781110077E0,9.788463153E0
6.704360667E0,1.115180969E-1,3.622467041E-1,9.805808716E0,9.813131179E0
6.714406667E0,9.310638428E-2,3.576063538E-1,9.801617432E0,9.808580702E0
6.724451667E0,9.086105347E-2,3.532653809E-1,9.787397003E0,9.794191761E0
6.734497667E0,9.131011963E-2,3.685336304E-1,9.781708832E0,9.789074637E0
6.744542667E0,1.064286804E-1,3.631448364E-1,9.768087158E0,9.775414465E0
6.754588667E0,9.505233765E-2,3.611988831E-1,9.776020660E0,9.783152842E0
6.764633667E0,1.067280579E-1,3.821553040E-1,9.808353424E0,9.816375627E0
6.774678667E0,1.175056458E-1,3.664379883E-1,9.791737976E0,9.799296759E0
6.784724667E0,1.308279419E-1,3.790118408E-1,9.777667236E0,9.785884861E0
6.794769667E0,1.267863464E-1,3.655398560E-1,9.796677704E0,9.804314774E0
6.804815667E0,1.303788757E-1,3.558100891E-1,9.793384552E0,9.800713263E0
6.814860667E0,1.191522217E-1,3.555107117E-1,9.773176575E0,9.780366326E0
6.824906667E0,1.278341675E-1,3.616479492E-1,9.781559143E0,9.789077080E0
6.834951667E0,1.122665405E-1,3.665876770E-1,9.788893890E0,9.796399027E0
6.844997667E0,1.044827271E-1,3.653901672E-1,9.785900116E0,9.793276658E0
6.855042667E0,9.595046997E-2,3.617976379E-1,9.806706848E0,9.813847524E0
6.865088667E0,8.068222046E-2,3.520678711E-1,9.789043579E0,9.795704957E0
6.875133667E0,8.681945801E-2,3.532653809E-1,9.771380310E0,9.778149478E0
6.885179667E0,8.966354370E-2,3.517684937E-1,9.793983307E0,9.800708629E0
6.895224667E0,1.031355286E-1,3.513194275E-1,9.797575836E0,9.804415054E0
6.905270667E0,1.130149841E-1,3.652404785E-1,9.792486420E0,9.799947106E0
6.915315667E0,1.278341675E-1,3.603007507E-1,9.784852295E0,9.792318042E0
6.925361667E0,1.332229614E-1,3.606001282E-1,9.781409454E0,9.788960707E0
6.935406667E0,1.453477478E-1,3.680845642E-1,9.796528015E0,9.804518008E0
6.945451667E0,1.290316772E-1,3.770658875E-1,9.800719299E0,9.808818820E0
6.955497667E0,1.227447510E-1,3.719764709E-1,9.799521790E0,9.807347250E0
6.965542667E0,9.086105347E-2,3.763174438E-1,9.790540466E0,9.798191321E0
6.975588667E0,8.711883545E-2,3.799099731E-1,9.773475952E0,9.781244986E0
6.985633667E0,9.669891357E-2,3.745211792E-1,9.786798248E0,9.794439073E0
6.995679667E0,7.978408813E-2,3.727249146E-1,9.777816925E0,9.785243645E0
7.005724667E0,9.520202637E-2,3.613485718E-1,9.780211945E0,9.787348052E0
7.015770667E0,1.097218323E-1,3.439846802E-1,9.793683929E0,9.800337201E0
7.025815667E0,1.085243225E-1,3.429368591E-1,9.791438599E0,9.798043328E0
7.035861667E0,1.143621826E-1,3.571572876E-1,9.801318054E0,9.808489977E0
7.045906667E0,1.190025330E-1,3.537144470E-1,9.794432373E0,9.801539727E0
7.055952667E0,1.187031555E-1,3.553610229E-1,9.790540466E0,9.797706595E0
7.065997667E0,1.389111328E-1,3.686833191E-1,9.788444824E0,9.796370541E0
7.076043667E0,1.395098877E-1,3.632945251E-1,9.798174591E0,9.805899818E0
7.086088667E0,1.254391479E-1,3.739224243E-1,9.792935486E0,9.800874369E0
7.096134667E0,1.197509766E-1,3.677851868E-1,9.776170349E0,9.783818934E0
7.106179667E0,1.067280579E-1,3.724255371E-1,9.780062256E0,9.787732597E0
7.116225667E0,9.490264893E-2,3.649411011E-1,9.792037354E0,9.799295079E0
7.126270667E0,9.145980835E-2,3.568579102E-1,9.778864746E0,9.785801356E0
7.136315667E0,8.187973022E-2,3.625460815E-1,9.797875214E0,9.804922369E0
7.146361667E0,9.355545044E-2,3.438349915E-1,9.789941711E0,9.796424544E0
7.156406667E0,9.295669556E-2,3.664379883E-1,9.772877197E0,9.780186423E0
7.166452667E0,1.119671631E-1,3.646417236E-1,9.787696381E0,9.795126373E0
7.176497667E0,1.053808594E-1,3.638932800E-1,9.787546692E0,9.794875890E0
7.186543667E0,1.166075134E-1,3.727249146E-1,9.779014435E0,9.786809720E0
7.196588667E0,1.216969299E-1,3.592529297E-1,9.791737976E0,9.799081865E0
7.206634667E0,1.124162292E-1,3.631448364E-1,9.786049805E0,9.793430572E0
7.216679667E0,1.212478638E-1,3.743714905E-1,9.786049805E0,9.793958640E0
7.226725667E0,1.076261902E-1,3.781137085E-1,9.793534241E0,9.801421647E0
7.236770667E0,1.047821045E-1,3.631448364E-1,9.799072723E0,9.806359146E0
7.246816667E0,1.179547119E-1,3.537144470E-1,9.776320038E0,9.783427861E0
7.256861667E0,1.104702759E-1,3.598516846E-1,9.783205719E0,9.790444886E0
7.266907667E0,9.714797974E-2,3.589535522E-1,9.796977081E0,9.804032095E0
7.276952667E0,9.220825195E-2,3.668870544E-1,9.774523773E0,9.781841517E0
7.286998667E0,9.490264893E-2,3.556604004E-1,9.791588287E0,9.798505091E0
7.297043667E0,1.110690308E-1,3.625460815E-1,9.791139221E0,9.798478619E0
7.307089667E0,1.077758789E-1,3.598516846E-1,9.784103851E0,9.791312325E0
7.317134667E0,1.125659180E-1,3.629951477E-1,9.785151672E0,9.792529286E0
7.327180667E0,1.230441284E-1,3.629951477E-1,9.788744202E0,9.796245116E0
7.337225667E0,1.275347900E-1,3.722758484E-1,9.773176575E0,9.781095787E0
7.347271667E0,1.140628052E-1,3.704795837E-1,9.783954163E0,9.791630329E0
7.357316667E0,1.276844788E-1,3.746708679E-1,9.789941711E0,9.797940615E0
7.367361667E0,1.095721436E-1,3.677851868E-1,9.770631866E0,9.778165424E0
7.377407667E0,1.007405090E-1,3.734733582E-1,9.776769104E0,9.784418486E0
7.387452667E0,9.939331055E-2,3.600013733E-1,9.779613190E0,9.786741754E0
7.397498667E0,1.079255676E-1,3.632945251E-1,9.782756653E0,9.790094921E0
7.407543667E0,1.185534668E-1,3.487747192E-1,9.778565369E0,9.785501489E0
7.417589667E0,9.939331055E-2,3.582051086E-1,9.786498871E0,9.793556559E0
7.427634667E0,1.190025330E-1,3.685336304E-1,9.801617432E0,9.809265157E0
7.437680667E0,1.172062683E-1,3.553610229E-1,9.792486420E0,9.799633108E0
7.447725667E0,1.264869690E-1,3.508703613E-1,9.796078949E0,9.803176615E0
7.457771667E0,1.204994202E-1,3.546125793E-1,9.812694397E0,9.819839180E0
7.467816667E0,1.113684082E-1,3.608995056E-1,9.778565369E0,9.785856735E0
7.477862667E0,1.085243225E-1,3.703298950E-1,9.779463501E0,9.787074544E0
7.487907667E0,9.984237671E-2,3.752696228E-1,9.798623657E0,9.806315382E0
7.497953667E0,1.074765015E-1,3.728746033E-1,9.778116302E0,9.785813461E0
7.507998667E0,9.430389404E-2,3.626957703E-1,9.782906342E0,9.790081610E0
7.518044667E0,8.951385498E-2,3.734733582E-1,9.789342957E0,9.796873511E0
7.528089667E0,9.235794067E-2,3.655398560E-1,9.773475952E0,9.780745450E0
7.538135667E0,1.026864624E-1,3.597019958E-1,9.779164124E0,9.786316007E0
7.548180667E0,1.085243225E-1,3.680845642E-1,9.792486420E0,9.800002758E0
7.558226667E0,9.819580078E-2,3.571572876E-1,9.802066498E0,9.809062716E0
7.568271667E0,1.026864624E-1,3.620970154E-1,9.798473969E0,9.805699917E0
7.578317667E0,1.113684082E-1,3.667373657E-1,9.781858521E0,9.789364399E0
7.588362667E0,1.291813660E-1,3.544628906E-1,9.768236847E0,9.775519570E0
7.598407667E0,1.258882141E-1,3.637435913E-1,9.785001984E0,9.792569686E0
7.608453667E0,1.240919495E-1,3.673361206E-1,9.790241089E0,9.797915861E0
7.618498667E0,1.236428833E-1,3.730242920E-1,9.791438599E0,9.799321635E0
7.628544667E0,1.091230774E-1,3.543132019E-1,9.781858521E0,9.788881540E0
7.638589667E0,1.142124939E-1,3.592529297E-1,9.787696381E0,9.794953170E0
7.648635667E0,1.103205872E-1,3.764671326E-1,9.797276459E0,9.805127441E0
7.658680667E0,1.076261902E-1,3.650907898E-1,9.787397003E0,9.794795290E0
7.668726667E0,1.245410156E-1,3.686833191E-1,9.810299377E0,9.818014653E0
7.678771667E0,1.095721436E-1,3.662882996E-1,9.792187042E0,9.799647965E0
7.688817667E0,1.294807434E-1,3.697311401E-1,9.786648560E0,9.794486021E0
7.698862667E0,1.305285645E-1,3.730242920E-1,9.783654785E0,9.791633458E0
7.708908667E0,1.170565796E-1,3.661386108E-1,9.775122528E0,9.782677556E0
7.718953667E0,1.121168518E-1,3.839515686E-1,9.795929260E0,9.804091955E0
7.728999667E0,9.550140381E-2,3.722758484E-1,9.792486420E0,9.800025516E0
7.739044667E0,1.068777466E-1,3.462300110E-1,9.788744202E0,9.795448490E0
7.749090667E0,1.050814819E-1,3.513194275E-1,9.791887665E0,9.798751528E0
7.759135667E0,1.010398865E-1,3.568579102E-1,9.784552917E0,9.791579669E0
7.769181667E0,9.744735718E-2,3.511697388E-1,9.768536224E0,9.775332022E0
7.779226667E0,8.981323242E-2,3.493734741E-1,9.781559143E0,9.788208596E0
7.789272667E0,1.014889526E-1,3.555107117E-1,9.775421906E0,9.782410812E0
7.799317667E0,1.029858398E-1,3.576063538E-1,9.791737976E0,9.798807120E0
7.809363667E0,1.061293030E-1,3.528163147E-1,9.802814941E0,9.809736161E0
7.819408667E0,1.140628052E-1,3.703298950E-1,9.790690155E0,9.798355386E0
7.829454667E0,1.175056458E-1,3.740721130E-1,9.777068481E0,9.784927471E0
7.839499667E0,1.179547119E-1,3.641926575E-1,9.788594513E0,9.796077386E0
7.849544667E0,1.209484863E-1,3.650907898E-1,9.785900116E0,9.793455003E0
7.859590667E0,1.231938171E-1,3.652404785E-1,9.792037354E0,9.799621057E0
7.869635667E0,1.076261902E-1,3.553610229E-1,9.792486420E0,9.799523209E0
7.879681667E0,1.133143616E-1,3.619473267E-1,9.777367859E0,9.784721164E0
7.889726667E0,9.759704590E-2,3.719764709E-1,9.791139221E0,9.798688633E0
7.899772667E0,1.043330383E-1,3.568579102E-1,9.777367859E0,9.784434332E0
7.909817667E0,1.088237000E-1,3.513194275E-1,9.785001984E0,9.791911548E0
7.919863292E0,1.086740112E-1,3.664379883E-1,9.789642334E0,9.797100789E0
7.929908292E0,1.109193420E-1,3.700305176E-1,9.776769104E0,9.784397774E0
7.939954292E0,1.020877075E-1,3.758683777E-1,9.785301361E0,9.793049661E0
7.949999292E0,1.136137390E-1,3.817062378E-1,9.800419922E0,9.808508469E0
7.960045292E0,1.199006653E-1,3.686833191E-1,9.784403229E0,9.792080989E0
7.970090292E0,1.204994202E-1,3.673361206E-1,9.784702606E0,9.792336852E0
7.980136292E0,1.269360352E-1,3.706292725E-1,9.787397003E0,9.795234500E0
7.990181292E0,1.170565796E-1,3.665876770E-1,9.786049805E0,9.793613202E0
8.000227292E0,1.152603149E-1,3.710783386E-1,9.783804474E0,9.791517454E0
8.010272292E0,1.073268127E-1,3.546125793E-1,9.781559143E0,9.788573359E0
8.020318292E0,1.056802368E-1,3.658392334E-1,9.788744202E0,9.796148207E0
8.030363292E0,9.325607300E-2,3.701802063E-1,9.799671478E0,9.807104117E0
8.040409292E0,1.025367737E-1,3.573069763E-1,9.784253540E0,9.791312445E0
8.050454292E0,9.699829102E-2,3.579057312E-1,9.783056030E0,9.790081229E0
8.060500292E0,9.774673462E-2,3.577560425E-1,9.795929260E0,9.802947204E0
8.070545292E0,1.275347900E-1,3.649411011E-1,9.799222412E0,9.806844906E0
8.080590292E0,1.326242065E-1,3.674858093E-1,9.769134979E0,9.776943962E0
8.090636292E0,1.202000427E-1,3.640429688E-1,9.784852295E0,9.792359765E0
8.100681292E0,1.263372803E-1,3.821553040E-1,9.789043579E0,9.797314835E0
8.110727292E0,1.206491089E-1,3.812571716E-1,9.788145447E0,9.796310761E0
8.120772292E0,1.082249451E-1,3.812571716E-1,9.797276459E0,9.805289169E0
8.130818292E0,1.106199646E-1,3.532653809E-1,9.795180817E0,9.802173251E0
8.140863292E0,1.061293030E-1,3.782633972E-1,9.778116302E0,9.786005572E0
8.150909292E0,9.984237671E-2,3.688330078E-1,9.792187042E0,9.799639450E0
8.160954292E0,9.475296021E-2,3.606001282E-1,9.788594513E0,9.795692580E0
8.171000292E0,1.050814819E-1,3.626957703E-1,9.794731750E0,9.802007978E0
8.181045292E0,1.137634277E-1,3.658392334E-1,9.783505096E0,9.791003648E0
8.191091292E0,1.031355286E-1,3.439846802E-1,9.779613190E0,9.786204399E0
8.201136292E0,1.091230774E-1,3.526666260E-1,9.791588287E0,9.798544932E0
8.211182292E0,1.089733887E-1,3.528163147E-1,9.804461517E0,9.811412752E0
8.221227292E0,1.134640503E-1,3.638932800E-1,9.802365875E0,9.809774165E0
8.231273292E0,1.251397705E-1,3.694317627E-1,9.793384552E0,9.801148952E0
8.241318292E0,1.207987976E-1,3.848497009E-1,9.781259766E0,9.789573241E0
8.251364292E0,1.133143616E-1,3.863465881E-1,9.791588287E0,9.799862500E0
8.261409292E0,1.119671631E-1,3.767665100E-1,9.770781555E0,9.778684055E0
8.271455292E0,1.170565796E-1,3.818559265E-1,9.798024902E0,9.806161745E0
8.281500292E0,9.999206543E-2,3.712280273E-1,9.787995758E0,9.795543355E0
8.291546292E0,9.864486694E-2,3.650907898E-1,9.792486420E0,9.799786343E0
8.301591292E0,1.103205872E-1,3.665876770E-1,9.794132996E0,9.801612025E0
8.311637292E0,1.086740112E-1,3.616479492E-1,9.786798248E0,9.794080826E0
8.321682292E0,1.082249451E-1,3.588038635E-1,9.783954163E0,9.791129246E0
8.331728292E0,1.079255676E-1,3.541635132E-1,9.805359650E0,9.812347200E0
8.341773292E0,1.110690308E-1,3.755690002E-1,9.787846069E0,9.795678592E0
8.351819292E0,1.142124939E-1,3.695814514E-1,9.789792023E0,9.797431438E0
8.361864292E0,1.115180969E-1,3.773652649E-1,9.796528015E0,9.804427672E0
8.371909292E0,1.155596924E-1,3.805087280E-1,9.776020660E0,9.784105523E0
8.381955292E0,1.106199646E-1,3.646417236E-1,9.778715057E0,9.786136548E0
8.392000292E0,1.124162292E-1,3.689826965E-1,9.796528015E0,9.804118869E0
8.402046292E0,9.714797974E-2,3.628454590E-1,9.777966614E0,9.785178877E0
8.412091292E0,1.092727661E-1,3.574566650E-1,9.786648560E0,9.793784041E0
8.422137292E0,1.019380188E-1,3.490740967E-1,9.794132996E0,9.800881859E0
8.432182292E0,1.097218323E-1,3.655398560E-1,9.795031128E0,9.802463622E0
8.442228292E0,1.172062683E-1,3.561094666E-1,9.797426147E0,9.804596390E0
8.452273292E0,1.199006653E-1,3.655398560E-1,9.787995758E0,9.795552895E0
8.462319292E0,1.083746338E-1,3.580554199E-1,9.770631866E0,9.777790948E0
8.472364292E0,1.173559570E-1,3.534150696E-1,9.795779572E0,9.802855301E0
8.482410292E0,1.233435059E-1,3.779640198E-1,9.795629883E0,9.803694978E0
8.492455292E0,1.058299255E-1,3.745211792E-1,9.792187042E0,9.799918018E0
8.502501292E0,9.639953613E-2,3.694317627E-1,9.788295135E0,9.795738582E0
8.512546292E0,1.176553345E-1,3.576063538E-1,9.787247314E0,9.794484932E0
8.522592292E0,1.107696533E-1,3.785627747E-1,9.789193268E0,9.797136547E0
8.532637292E0,9.924362183E-2,3.751199341E-1,9.770182800E0,9.777885058E0
8.542683292E0,1.074765015E-1,3.595523071E-1,9.787995758E0,9.795187084E0
8.552728292E0,1.236428833E-1,3.610491943E-1,9.789792023E0,9.797227768E0
8.562774292E0,1.184037781E-1,3.703298950E-1,9.787247314E0,9.794966752E0
8.572819292E0,9.205856323E-2,3.707789612E-1,9.789342957E0,9.796794748E0
8.582865292E0,1.122665405E-1,3.676354980E-1,9.790839844E0,9.798382748E0
8.592910292E0,9.789642334E-2,3.695814514E-1,9.778565369E0,9.786036727E0
8.602956292E0,1.119671631E-1,3.585044861E-1,9.797426147E0,9.804622442E0
8.613001292E0,1.151106262E-1,3.582051086E-1,9.788893890E0,9.796121934E0
8.623047292E0,1.143621826E-1,3.647914124E-1,9.790091400E0,9.797552812E0
8.633092292E0,1.139131165E-1,3.600013733E-1,9.786648560E0,9.793930121E0
8.643138292E0,9.714797974E-2,3.709286499E-1,9.786798248E0,9.794306803E0
8.653183292E0,1.085243225E-1,3.617976379E-1,9.786798248E0,9.794084695E0
8.663229292E0,1.070274353E-1,3.754193115E-1,9.778265991E0,9.786055402E0
8.673274292E0,1.029858398E-1,3.772155762E-1,9.790989532E0,9.798794502E0
8.683320292E0,1.127156067E-1,3.761677551E-1,9.781708832E0,9.789588074E0
8.693365292E0,1.243913269E-1,3.650907898E-1,9.781559143E0,9.789160524E0
8.703411292E0,1.270857239E-1,3.577560425E-1,9.788295135E0,9.795655253E0
8.713456292E0,1.230441284E-1,3.646417236E-1,9.792187042E0,9.799746452E0
8.723501292E0,1.116677856E-1,3.635939026E-1,9.779912567E0,9.787306067E0
8.733547292E0,1.112187195E-1,3.526666260E-1,9.784253540E0,9.791238976E0
8.743592292E0,1.052311707E-1,3.538641357E-1,9.781559143E0,9.788523520E0
8.753638292E0,1.037342834E-1,3.680845642E-1,9.778265991E0,9.785741303E0
8.763683292E0,1.029858398E-1,3.586541748E-1,9.792486420E0,9.799593317E0
8.773729292E0,9.535171509E-2,3.692820740E-1,9.793384552E0,9.800808241E0
8.783774292E0,1.097218323E-1,3.558100891E-1,9.785151672E0,9.792233297E0
8.793820292E0,1.178050232E-1,3.691323853E-1,9.782307587E0,9.789978471E0
8.803865292E0,1.118174744E-1,3.688330078E-1,9.799072723E0,9.806649131E0
8.813911292E0,1.094224548E-1,3.682342529E-1,9.792187042E0,9.799719221E0
8.823956292E0,1.143621826E-1,3.586541748E-1,9.788744202E0,9.795980021E0
8.834002292E0,1.119671631E-1,3.679348755E-1,9.797575836E0,9.805121365E0
8.844047292E0,1.031355286E-1,3.580554199E-1,9.784403229E0,9.791495655E0
8.854093292E0,1.110690308E-1,3.595523071E-1,9.801617432E0,9.808838793E0
8.864138292E0,1.106199646E-1,3.659889221E-1,9.787397003E0,9.794862162E0
8.874184292E0,1.166075134E-1,3.691323853E-1,9.794432373E0,9.802079450E0
8.884229292E0,1.107696533E-1,3.757186890E-1,9.789193268E0,9.797027064E0
8.894275292E0,1.115180969E-1,3.667373657E-1,9.792187042E0,9.799686712E0
8.904320292E0,1.164578247E-1,3.794609070E-1,9.779762878E0,9.787814616E0
8.914366583E0,1.059796143E-1,3.689826965E-1,9.788594513E0,9.796119765E0
8.924411583E0,1.068777466E-1,3.790118408E-1,9.782457275E0,9.790380134E0
8.934457583E0,1.038839722E-1,3.653901672E-1,9.787696381E0,9.795065201E0
8.944502583E0,1.079255676E-1,3.604504395E-1,9.786049805E0,9.793280514E0
8.954548583E0,1.028361511E-1,3.528163147E-1,9.779014435E0,9.785917328E0
8.964593583E0,1.077758789E-1,3.632945251E-1,9.793983307E0,9.801311523E0
8.974639583E0,1.134640503E-1,3.588038635E-1,9.794881439E0,9.802107769E0
8.984684583E0,1.133143616E-1,3.513194275E-1,9.783804474E0,9.790765826E0
8.994730583E0,1.275347900E-1,3.487747192E-1,9.785451050E0,9.792495146E0
9.004775583E0,1.155596924E-1,3.682342529E-1,9.783056030E0,9.790665749E0
9.014821583E0,1.103205872E-1,3.667373657E-1,9.783505096E0,9.790997850E0
9.024866583E0,1.134640503E-1,3.585044861E-1,9.788744202E0,9.795964098E0
9.034912583E0,1.076261902E-1,3.571572876E-1,9.788594513E0,9.795699427E0
9.044957583E0,1.082249451E-1,3.576063538E-1,9.790540466E0,9.797666945E0
9.055003583E0,1.073268127E-1,3.764671326E-1,9.786498871E0,9.794325229E0
9.065048583E0,1.026864624E-1,3.553610229E-1,9.781559143E0,9.788550722E0
9.075094583E0,1.010398865E-1,3.616479492E-1,9.777816925E0,9.785024380E0
9.085139583E0,1.199006653E-1,3.564088440E-1,9.797725525E0,9.804939005E0
9.095185583E0,1.242416382E-1,3.701802063E-1,9.787546692E0,9.795332542E0
9.105230583E0,1.291813660E-1,3.694317627E-1,9.794582062E0,9.802397942E0
9.115276583E0,1.140628052E-1,3.727249146E-1,9.780211945E0,9.787976291E0
9.125321583E0,1.128652954E-1,3.680845642E-1,9.784403229E0,9.791974845E0
9.135366583E0,1.194515991E-1,3.619473267E-1,9.779313812E0,9.786738639E0
9.145412583E0,1.210981750E-1,3.686833191E-1,9.792187042E0,9.799873429E0
9.155457583E0,1.034349060E-1,3.631448364E-1,9.776619415E0,9.783908224E0
9.165503583E0,1.073268127E-1,3.561094666E-1,9.778265991E0,9.785336928E0
9.175548583E0,1.151106262E-1,3.507206726E-1,9.798174591E0,9.805125229E0
9.185594583E0,9.475296021E-2,3.561094666E-1,9.784103851E0,9.791040815E0
9.195639583E0,1.110690308E-1,3.597019958E-1,9.790540466E0,9.797775486E0
9.205685583E0,1.085243225E-1,3.613485718E-1,9.798174591E0,9.805436025E0
9.215730583E0,1.110690308E-1,3.535647583E-1,9.781409454E0,9.788427620E0
9.225776583E0,9.879455566E-2,3.516188049E-1,9.792636108E0,9.799444785E0
9.235821583E0,1.112187195E-1,3.745211792E-1,9.799222412E0,9.807007474E0
9.245867583E0,1.139131165E-1,3.823049927E-1,9.778415680E0,9.786549265E0
9.255912583E0,1.124162292E-1,3.691323853E-1,9.787097626E0,9.794701428E0
9.265958583E0,9.310638428E-2,3.757186890E-1,9.796977081E0,9.804621016E0
9.276003583E0,1.031355286E-1,3.595523071E-1,9.790839844E0,9.797982427E0
9.286049583E0,1.041833496E-1,3.667373657E-1,9.791438599E0,9.798858112E0
9.296094583E0,1.056802368E-1,3.661386108E-1,9.789492645E0,9.796907269E0
9.306140583E0,1.071771240E-1,3.641926575E-1,9.784852295E0,9.792214135E0
9.316185583E0,1.070274353E-1,3.680845642E-1,9.793983307E0,9.801482038E0
9.326231583E0,1.164578247E-1,3.556604004E-1,9.777816925E0,9.784976268E0
9.336276583E0,1.206491089E-1,3.603007507E-1,9.783056030E0,9.790431969E0
9.346322583E0,1.160087585E-1,3.644920349E-1,9.785600739E0,9.793073792E0
9.356367583E0,1.065783691E-1,3.565585327E-1,9.784552917E0,9.791627481E0
9.366413583E0,1.101708984E-1,3.611988831E-1,9.797575836E0,9.804850561E0
9.376458583E0,1.056802368E-1,3.659889221E-1,9.792636108E0,9.800042763E0
9.386504583E0,1.056802368E-1,3.680845642E-1,9.787397003E0,9.794886148E0
9.396549583E0,9.834548950E-2,3.640429688E-1,9.802216187E0,9.809466922E0
9.406595583E0,1.095721436E-1,3.611988831E-1,9.802665253E0,9.809929497E0
9.416640583E0,1.086740112E-1,3.719764709E-1,9.786049805E0,9.793719790E0
9.426686583E0,1.076261902E-1,3.800596619E-1,9.779313812E0,9.787288050E0
9.436731583E0,1.125659180E-1,3.652404785E-1,9.790390778E0,9.797847890E0
9.446777583E0,1.095721436E-1,3.712280273E-1,9.798473969E0,9.806115868E0
9.456822583E0,1.134640503E-1,3.662882996E-1,9.776918793E0,9.784435716E0
9.466868583E0,1.055305481E-1,3.606001282E-1,9.802964630E0,9.810162317E0
9.476913583E0,1.094224548E-1,3.546125793E-1,9.777966614E0,9.785006615E0
9.486959583E0,1.007405090E-1,3.614982605E-1,9.795480194E0,9.802666060E0
9.497004583E0,1.092727661E-1,3.722758484E-1,9.780211945E0,9.787904552E0
9.507050583E0,1.155596924E-1,3.698808289E-1,9.803563385E0,9.811219135E0
9.517095583E0,1.011895752E-1,3.704795837E-1,9.793534241E0,9.801061543E0
9.527141583E0,1.044827271E-1,3.655398560E-1,9.797725525E0,9.805098750E0
9.537186583E0,1.124162292E-1,3.743714905E-1,9.785900116E0,9.793703717E0
9.547232583E0,1.107696533E-1,3.577560425E-1,9.770781555E0,9.777956407E0
9.557277583E0,1.064286804E-1,3.652404785E-1,9.777966614E0,9.785364519E0
9.567323583E0,1.083746338E-1,3.634442139E-1,9.777068481E0,9.784421539E0
9.577368583E0,1.037342834E-1,3.582051086E-1,9.783954163E0,9.791058715E0
9.587414583E0,1.175056458E-1,3.525169373E-1,9.785600739E0,9.792653245E0
9.597459583E0,9.505233765E-2,3.505709839E-1,9.780661011E0,9.787403372E0
9.607504583E0,1.008901978E-1,3.465293884E-1,9.798324280E0,9.804969156E0
9.617550583E0,1.086740112E-1,3.510200500E-1,9.793833618E0,9.800724568E0
9.627595583E0,1.308279419E-1,3.763174438E-1,9.789492645E0,9.797596492E0
9.637641583E0,1.179547119E-1,3.695814514E-1,9.784403229E0,9.792091212E0
9.647686583E0,1.202000427E-1,3.637435913E-1,9.789193268E0,9.796686291E0
9.657732583E0,1.193019104E-1,3.695814514E-1,9.774074707E0,9.781787146E0
9.667777583E0,1.020877075E-1,3.763174438E-1,9.780511322E0,9.788280668E0
9.677823583E0,1.073268127E-1,3.668870544E-1,9.781559143E0,9.789025714E0
9.687868583E0,1.158590698E-1,3.650907898E-1,9.785900116E0,9.793393472E0
9.697914583E0,9.610015869E-2,3.688330078E-1,9.806108093E0,9.813512570E0
9.707959583E0,1.080752563E-1,3.607498169E-1,9.790839844E0,9.798079686E0
9.718005583E0,1.124162292E-1,3.579057312E-1,9.768835602E0,9.776036157E0
9.728050583E0,1.017883301E-1,3.577560425E-1,9.778116302E0,9.785188229E0
9.738096583E0,1.011895752E-1,3.582051086E-1,9.789193268E0,9.796267405E0
9.748141583E0,1.056802368E-1,3.547622681E-1,9.781110077E0,9.788112122E0
9.758187583E0,1.079255676E-1,3.613485718E-1,9.791887665E0,9.799147144E0
9.768232583E0,1.125659180E-1,3.662882996E-1,9.783804474E0,9.791305745E0
9.778278583E0,1.146615601E-1,3.604504395E-1,9.780511322E0,9.787822716E0
9.788323583E0,1.131646729E-1,3.692820740E-1,9.781110077E0,9.788732800E0
9.798369583E0,1.193019104E-1,3.715274048E-1,9.781259766E0,9.789040206E0
9.808414583E0,1.139131165E-1,3.701802063E-1,9.794582062E0,9.802236854E0
9.818460583E0,1.121168518E-1,3.689826965E-1,9.786498871E0,9.794094066E0
9.828505583E0,1.083746338E-1,3.608995056E-1,9.789342957E0,9.796592726E0
9.838551583E0,1.115180969E-1,3.586541748E-1,9.800719299E0,9.807913534E0
9.848596583E0,1.139131165E-1,3.577560425E-1,9.783056030E0,9.790257958E0
9.858642583E0,1.032852173E-1,3.649411011E-1,9.782008209E0,9.789358225E0
9.868687583E0,1.136137390E-1,3.680845642E-1,9.801916809E0,9.809483547E0
9.878733583E0,1.094224548E-1,3.731739807E-1,9.788594513E0,9.796316381E0
9.888778583E0,1.058299255E-1,3.637435913E-1,9.775870972E0,9.783208197E0
9.898824583E0,1.043330383E-1,3.662882996E-1,9.780211945E0,9.787624747E0
9.908869583E0,1.001417542E-1,3.637435913E-1,9.785750427E0,9.793020433E0
9.918915083E0,1.166075134E-1,3.700305176E-1,9.790540466E0,9.798224457E0
9.928960083E0,1.143621826E-1,3.632945251E-1,9.789193268E0,9.796599739E0
9.939006083E0,1.104702759E-1,3.613485718E-1,9.782606964E0,9.789901710E0
9.949051083E0,1.104702759E-1,3.529660034E-1,9.797575836E0,9.804554092E0
9.959097083E0,1.086740112E-1,3.585044861E-1,9.779313812E0,9.786486302E0
9.969142083E0,1.101708984E-1,3.631448364E-1,9.786199493E0,9.793554632E0
9.979188083E0,9.550140381E-2,3.577560425E-1,9.790091400E0,9.797091381E0
9.989233083E0,1.013392639E-1,3.547622681E-1,9.777367859E0,9.784326659E0
9.999279083E0,1.094224548E-1,3.525169373E-1,9.780211945E0,9.787174625E0
1.000932408E1,1.155596924E-1,3.625460815E-1,9.791288910E0,9.798680126E0
1.001937008E1,1.136137390E-1,3.583547974E-1,9.788444824E0,9.795661199E0
1.002941508E1,1.085243225E-1,3.585044861E-1,9.791139221E0,9.798301396E0
1.003946108E1,1.212478638E-1,3.710783386E-1,9.788594513E0,9.796375999E0
1.004950608E1,1.213975525E-1,3.758683777E-1,9.785900116E0,9.793868259E0
1.005955208E1,1.146615601E-1,3.682342529E-1,9.787397003E0,9.794992794E0
1.006959708E1,1.122665405E-1,3.676354980E-1,9.786648560E0,9.794194692E0
1.007964308E1,1.139131165E-1,3.716770935E-1,9.781259766E0,9.788981697E0
1.008968808E1,1.080752563E-1,3.676354980E-1,9.778715057E0,9.786220123E0
1.009973408E1,1.101708984E-1,3.490740967E-1,9.798174591E0,9.805009723E0
1.010977908E1,1.061293030E-1,3.574566650E-1,9.809550934E0,9.816635280E0
1.011982508E1,1.196012878E-1,3.468287659E-1,9.780211945E0,9.787090494E0
1.012987008E1,1.004411316E-1,3.483256531E-1,9.794282684E0,9.800989362E0
1.013991608E1,1.101708984E-1,3.523672485E-1,9.777517548E0,9.784485152E0
1.014996108E1,1.121168518E-1,3.640429688E-1,9.788744202E0,9.796152843E0
1.016000708E1,1.032852173E-1,3.722758484E-1,9.790989532E0,9.798608736E0
1.017005208E1,1.068777466E-1,3.706292725E-1,9.795031128E0,9.802623307E0
1.018009808E1,9.939331055E-2,3.776646423E-1,9.784253540E0,9.792044064E0
1.019014308E1,1.070274353E-1,3.710783386E-1,9.804162140E0,9.811765859E0
1.020018908E1,1.116677856E-1,3.707789612E-1,9.790690155E0,9.798344781E0
1.021023408E1,1.044827271E-1,3.632945251E-1,9.794881439E0,9.802173328E0
1.022028008E1,1.119671631E-1,3.597019958E-1,9.789792023E0,9.797037819E0
1.023032508E1,1.106199646E-1,3.766168213E-1,9.791139221E0,9.799004248E0
1.024037108E1,1.007405090E-1,3.673361206E-1,9.792636108E0,9.800041144E0
1.025041608E1,1.088237000E-1,3.608995056E-1,9.774673462E0,9.781939089E0
1.026046208E1,9.490264893E-2,3.598516846E-1,9.794282684E0,9.801350573E0
1.027050708E1,1.031355286E-1,3.616479492E-1,9.788444824E0,9.795666300E0
1.028055308E1,1.010398865E-1,3.579057312E-1,9.776320038E0,9.783390979E0
1.029059808E1,1.106199646E-1,3.668870544E-1,9.792336731E0,9.799831710E0
1.030064408E1,1.041833496E-1,3.722758484E-1,9.793085175E0,9.800712255E0
1.031068908E1,1.323248291E-1,3.728746033E-1,9.781409454E0,9.789408370E0
1.032073508E1,1.203497314E-1,3.724255371E-1,9.772128754E0,9.779963457E0
1.033078008E1,1.219963074E-1,3.665876770E-1,9.798773346E0,9.806387138E0
1.034082608E1,1.080752563E-1,3.538641357E-1,9.783205719E0,9.790199907E0
1.035087108E1,1.062789917E-1,3.725752258E-1,9.772428131E0,9.780105270E0
1.036091708E1,1.107696533E-1,3.607498169E-1,9.786049805E0,9.793323293E0
1.037096208E1,1.013392639E-1,3.510200500E-1,9.785750427E0,9.792568414E0
1.038100808E1,1.061293030E-1,3.510200500E-1,9.776469727E0,9.783344971E0
1.039105308E1,1.013392639E-1,3.513194275E-1,9.789792023E0,9.796617928E0
1.040109908E1,1.089733887E-1,3.576063538E-1,9.783355408E0,9.790495418E0
1.041114408E1,1.167572021E-1,3.580554199E-1,9.779912567E0,9.787161271E0
1.042119008E1,1.055305481E-1,3.619473267E-1,9.787995758E0,9.795254133E0
1.043123508E1,1.124162292E-1,3.670367432E-1,9.784103851E0,9.791631200E0
1.044128008E1,1.028361511E-1,3.763174438E-1,9.794282684E0,9.802048939E0
1.045132608E1,1.088237000E-1,3.757186890E-1,9.805060272E0,9.812859628E0
1.046137108E1,1.182540894E-1,3.730242920E-1,9.805359650E0,9.813165086E0
1.047141708E1,1.207987976E-1,3.637435913E-1,9.784253540E0,9.791757712E0
1.048146308E1,1.109193420E-1,3.604504395E-1,9.801318054E0,9.808570906E0
1.049150808E1,1.187031555E-1,3.683839417E-1,9.791737976E0,9.799384152E0
1.050155408E1,1.043330383E-1,3.670367432E-1,9.780960388E0,9.788400659E0
1.051159908E1,1.143621826E-1,3.564088440E-1,9.776170349E0,9.783333413E0
1.052164408E1,1.032852173E-1,3.541635132E-1,9.789342957E0,9.796291908E0
1.053169008E1,1.082249451E-1,3.583547974E-1,9.796827393E0,9.803976630E0
1.054173508E1,1.062789917E-1,3.625460815E-1,9.780511322E0,9.787805505E0
1.055178108E1,1.172062683E-1,3.534150696E-1,9.794731750E0,9.801806445E0
1.056182608E1,1.074765015E-1,3.573069763E-1,9.781858521E0,9.788972142E0
1.057187208E1,1.103205872E-1,3.656895447E-1,9.793833618E0,9.801279325E0
1.058191708E1,1.146615601E-1,3.731739807E-1,9.794582062E0,9.802359097E0
1.059196308E1,1.191522217E-1,3.689826965E-1,9.782157898E0,9.789839561E0
1.060200808E1,1.158590698E-1,3.595523071E-1,9.789941711E0,9.797227154E0
1.061205408E1,1.109193420E-1,3.623963928E-1,9.804611206E0,9.811933303E0
1.062209908E1,1.182540894E-1,3.694317627E-1,9.779313812E0,9.787003755E0
1.063214508E1,1.010398865E-1,3.743714905E-1,9.780511322E0,9.788195175E0
1.064219008E1,1.034349060E-1,3.567082214E-1,9.779313812E0,9.786363889E0
1.065223608E1,9.774673462E-2,3.598516846E-1,9.782756653E0,9.789860846E0
1.066228108E1,1.040336609E-1,3.576063538E-1,9.798174591E0,9.805250156E0
1.067232708E1,1.014889526E-1,3.550616455E-1,9.799970856E0,9.806925999E0
1.068237208E1,1.206491089E-1,3.504212952E-1,9.765542450E0,9.772572365E0
1.069241808E1,1.207987976E-1,3.585044861E-1,9.782606964E0,9.789919143E0
1.070246308E1,1.059796143E-1,3.472778320E-1,9.814939728E0,9.821653396E0
1.071250908E1,1.016386414E-1,3.703298950E-1,9.783954163E0,9.791487819E0
1.072255408E1,1.216969299E-1,3.644920349E-1,9.780661011E0,9.788206904E0
1.073260008E1,1.023870850E-1,3.725752258E-1,9.801018677E0,9.808632041E0
1.074264508E1,1.130149841E-1,3.677851868E-1,9.793983307E0,9.801538009E0
1.075269108E1,1.098715210E-1,3.650907898E-1,9.771380310E0,9.778815685E0
1.076273608E1,1.001417542E-1,3.614982605E-1,9.794282684E0,9.801463292E0
1.077278208E1,9.789642334E-2,3.595523071E-1,9.805958405E0,9.813036319E0
1.078282708E1,1.073268127E-1,3.516188049E-1,9.787397003E0,9.794299103E0
1.079287308E1,1.124162292E-1,3.595523071E-1,9.815688171E0,9.822914514E0
1.080291808E1,1.203497314E-1,3.611988831E-1,9.763446808E0,9.770867017E0
1.081296408E1,1.234931946E-1,3.565585327E-1,9.796228638E0,9.803493259E0
1.082300908E1,1.134640503E-1,3.603007507E-1,9.771829376E0,9.779127777E0
1.083305508E1,1.216969299E-1,3.707789612E-1,9.804162140E0,9.811925522E0
1.084310008E1,1.143621826E-1,3.739224243E-1,9.784702606E0,9.792512537E0
1.085314608E1,1.152603149E-1,3.698808289E-1,9.783654785E0,9.791322573E0
1.086319108E1,1.122665405E-1,3.802093506E-1,9.773326263E0,9.781363360E0
1.087323708E1,1.267863464E-1,3.715274048E-1,9.818382568E0,9.826227335E0
1.088328208E1,1.154100037E-1,3.737727356E-1,9.787546692E0,9.795360931E0
1.089332808E1,1.080752563E-1,3.697311401E-1,9.804162140E0,9.811726486E0
1.090337308E1,1.047821045E-1,3.796105957E-1,9.776918793E0,9.784846681E0
1.091341908E1,1.038839722E-1,3.576063538E-1,9.783654785E0,9.790739254E0
1.092346429E1,1.101708984E-1,3.538641357E-1,9.807904358E0,9.814904245E0
1.093351029E1,1.077758789E-1,3.698808289E-1,9.784702606E0,9.792284338E0
1.094355529E1,1.050814819E-1,3.546125793E-1,9.778265991E0,9.785258198E0
1.095360129E1,1.125659180E-1,3.453318787E-1,9.775721283E0,9.782466550E0
1.096364629E1,1.173559570E-1,3.662882996E-1,9.782457275E0,9.790015827E0
1.097369229E1,1.139131165E-1,3.553610229E-1,9.797126770E0,9.804231260E0
1.098373729E1,1.157093811E-1,3.766168213E-1,9.773625641E0,9.781563631E0
1.099378329E1,1.202000427E-1,3.719764709E-1,9.780211945E0,9.788021262E0
1.100382829E1,1.064286804E-1,3.628454590E-1,9.777966614E0,9.785275417E0
1.101387429E1,1.202000427E-1,3.749702454E-1,9.796078949E0,9.803989673E0
1.102391929E1,1.143621826E-1,3.745211792E-1,9.772877197E0,9.780719479E0
1.103396529E1,1.011895752E-1,3.561094666E-1,9.783505096E0,9.790506895E0
1.104401029E1,9.190887451E-2,3.516188049E-1,9.764195251E0,9.770956552E0
1.105405629E1,1.007405090E-1,3.580554199E-1,9.797126770E0,9.804185090E0
1.106410129E1,9.116043091E-2,3.586541748E-1,9.782307587E0,9.789304611E0
1.107414729E1,1.149609375E-1,3.507206726E-1,9.788893890E0,9.795849356E0
1.108419229E1,1.088237000E-1,3.601510620E-1,9.761949921E0,9.769197390E0
1.109423829E1,1.026864624E-1,3.667373657E-1,9.784552917E0,9.791961836E0
1.110428329E1,1.188528442E-1,3.555107117E-1,9.787546692E0,9.794722258E0
1.111432929E1,1.260379028E-1,3.781137085E-1,9.772577820E0,9.780702059E0
1.112437429E1,1.324745178E-1,3.826043701E-1,9.783355408E0,9.791730115E0
1.113442029E1,1.224453735E-1,3.742218018E-1,9.808203735E0,9.816103878E0
1.114446529E1,1.179547119E-1,3.746708679E-1,9.790241089E0,9.798117786E0
1.115451129E1,1.314266968E-1,3.772155762E-1,9.801168365E0,9.809305067E0
1.116455629E1,1.148112488E-1,3.730242920E-1,9.784253540E0,9.792034828E0
1.117460229E1,1.134640503E-1,3.664379883E-1,9.781708832E0,9.789227679E0
1.118464729E1,1.164578247E-1,3.685336304E-1,9.783954163E0,9.791585087E0
1.119469329E1,1.004411316E-1,3.528163147E-1,9.794881439E0,9.801748323E0
1.120473829E1,1.088237000E-1,3.574566650E-1,9.785451050E0,9.792582403E0
1.121478429E1,9.385482788E-2,3.653901672E-1,9.784403229E0,9.791673261E0
1.122482929E1,1.053808594E-1,3.622467041E-1,9.800120544E0,9.807379389E0
1.123487529E1,1.031355286E-1,3.668870544E-1,9.773326263E0,9.780754025E0
1.124492029E1,1.022373962E-1,3.709286499E-1,9.776020660E0,9.783589347E0
1.125496629E1,1.158590698E-1,3.620970154E-1,9.781259766E0,9.788645472E0
1.126501129E1,1.109193420E-1,3.740721130E-1,9.787846069E0,9.795619619E0
1.127505729E1,1.148112488E-1,3.679348755E-1,9.794432373E0,9.802013222E0
1.128510229E1,1.023870850E-1,3.739224243E-1,9.783355408E0,9.791033864E0
1.129514829E1,1.338217163E-1,3.622467041E-1,9.787546692E0,9.795162131E0
1.130519329E1,1.164578247E-1,3.546125793E-1,9.791288910E0,9.798400432E0
1.131523929E1,1.094224548E-1,3.487747192E-1,9.793085175E0,9.799904812E0
1.132528429E1,1.140628052E-1,3.484753418E-1,9.785451050E0,9.792318297E0
1.133533029E1,1.207987976E-1,3.655398560E-1,9.793534241E0,9.801098135E0
1.134537629E1,1.119671631E-1,3.577560425E-1,9.773925018E0,9.781111199E0
1.135542129E1,1.140628052E-1,3.671864319E-1,9.778864746E0,9.786420792E0
1.136546629E1,1.237925720E-1,3.632945251E-1,9.788744202E0,9.796265644E0
1.137551229E1,1.420545959E-1,3.682342529E-1,9.790241089E0,9.798193535E0
1.138555729E1,1.266366577E-1,3.701802063E-1,9.779613190E0,9.787436047E0
1.139560329E1,1.314266968E-1,3.655398560E-1,9.764794006E0,9.772517298E0
1.140564929E1,1.448986816E-1,3.629951477E-1,9.821376343E0,9.829150236E0
1.141569429E1,1.380130005E-1,3.691323853E-1,9.799970856E0,9.807891470E0
1.142574029E1,1.142124939E-1,3.659889221E-1,9.781858521E0,9.789369157E0
1.143578529E1,8.996292114E-2,3.513194275E-1,9.777218170E0,9.783941630E0
1.144583129E1,1.019380188E-1,3.475772095E-1,9.771080933E0,9.777792382E0
1.145587629E1,9.145980835E-2,3.613485718E-1,9.774523773E0,9.781628325E0
1.146592229E1,9.340576172E-2,3.595523071E-1,9.788594513E0,9.795641124E0
1.147596729E1,1.080752563E-1,3.504212952E-1,9.808353424E0,9.815206174E0
1.148601329E1,1.248403931E-1,3.565585327E-1,9.792336731E0,9.799621307E0
1.149605829E1,1.199006653E-1,3.549119568E-1,9.808652802E0,9.815804014E0
1.150610429E1,1.059796143E-1,3.725752258E-1,9.787247314E0,9.794909595E0
1.151614929E1,1.149609375E-1,3.845503235E-1,9.772577820E0,9.780816541E0
1.152619529E1,1.300794983E-1,3.734733582E-1,9.788295135E0,9.796281166E0
1.153624029E1,1.107696533E-1,3.704795837E-1,9.787995758E0,9.795630965E0
1.154628629E1,1.095721436E-1,3.637435913E-1,9.774523773E0,9.781903212E0
1.155633129E1,1.193019104E-1,3.595523071E-1,9.782008209E0,9.789340908E0
1.156637729E1,1.167572021E-1,3.489244080E-1,9.792785797E0,9.799695615E0
1.157642229E1,1.248403931E-1,3.513194275E-1,9.798473969E0,9.805564878E0
1.158646829E1,1.172062683E-1,3.549119568E-1,9.801617432E0,9.808741208E0
1.159651329E1,1.221459961E-1,3.427871704E-1,9.788295135E0,9.795057139E0
1.160655929E1,1.215472412E-1,3.607498169E-1,9.780810699E0,9.788215982E0
1.161660429E1,1.299298096E-1,3.638932800E-1,9.799072723E0,9.806687836E0
1.162665029E1,1.133143616E-1,3.665876770E-1,9.786349182E0,9.793868336E0
1.163669529E1,1.194515991E-1,3.722758484E-1,9.803713074E0,9.811505900E0
1.164674129E1,9.984237671E-2,3.737727356E-1,9.779164124E0,9.786813859E0
1.165678629E1,1.356179810E-1,3.597019958E-1,9.801318054E0,9.808853825E0
1.166683229E1,1.179547119E-1,3.616479492E-1,9.776918793E0,9.784316207E0
1.167687729E1,1.272354126E-1,3.637435913E-1,9.781110077E0,9.788698207E0
1.168692329E1,1.216969299E-1,3.725752258E-1,9.772278442E0,9.780135398E0
1.169696829E1,1.146615601E-1,3.745211792E-1,9.780661011E0,9.788500559E0
1.170701429E1,9.535171509E-2,3.703298950E-1,9.764943695E0,9.772428641E0
1.171705929E1,1.230441284E-1,3.725752258E-1,9.781409454E0,9.789275922E0
1.172710529E1,7.514373779E-2,3.622467041E-1,9.689500580E0,9.696560769E0
1.173715029E1,7.843688965E-2,3.591032410E-1,9.703421631E0,9.710380983E0
1.174719629E1,1.420545959E-1,3.586541748E-1,9.764943695E0,9.772560447E0
1.175724129E1,1.829196167E-1,3.388952637E-1,9.789792023E0,9.797363800E0
1.176728729E1,2.044747925E-1,3.436853027E-1,9.809101868E0,9.817250581E0
1.177733229E1,1.959425354E-1,3.459306335E-1,9.779014435E0,9.787092765E0
1.178737829E1,2.477348328E-1,3.390449524E-1,9.779014435E0,9.788025712E0
1.179742329E1,2.639012146E-1,3.429368591E-1,9.801168365E0,9.810716124E0
1.180746929E1,2.906954956E-1,3.291654968E-1,9.801617432E0,9.811450355E0
1.181751429E1,3.501219177E-1,3.234773254E-1,9.833201752E0,9.844748835E0
1.182756029E1,3.091072083E-1,3.171903992E-1,9.790839844E0,9.800852099E0
1.183760529E1,2.868035889E-1,3.185375977E-1,9.749226379E0,9.758644245E0
1.184765129E1,2.974314880E-1,3.179388428E-1,9.721983032E0,9.731726706E0
1.185769629E1,2.791694641E-1,3.209326172E-1,9.684710541E0,9.694047225E0
1.186774229E1,3.227288818E-1,2.405497742E-1,9.651180267E0,9.659570315E0
1.187778729E1,4.878355408E-1,1.604663086E-1,9.692045288E0,9.705641391E0
1.188783329E1,5.978567505E-1,1.917512512E-1,9.759704590E0,9.779879085E0
1.189787829E1,6.707551575E-1,1.598675537E-1,9.788295135E0,9.812552765E0
1.190792429E1,6.884184265E-1,2.155517578E-1,9.768386536E0,9.794986371E0
1.191796929E1,6.908134460E-1,1.875599670E-1,9.726174316E0,9.752480135E0
1.192801529E1,7.887098694E-1,2.174977112E-1,9.786049805E0,9.820190390E0
1.193806029E1,9.011260986E-1,2.483335876E-1,9.977351990E0,1.002104039E1
1.194810629E1,1.778751068E0,7.235952759E-1,1.009605515E1,1.027705575E1
1.195815129E1,7.466473389E-1,-1.591191101E-1,9.679770813E0,9.709828224E0
1.196819729E1,6.360273743E-1,2.877017212E-1,9.808503113E0,9.833312586E0
1.197824229E1,7.611671448E-1,1.172062683E-1,9.754315796E0,9.784671143E0
1.198828829E1,8.122109985E-1,1.164578247E-1,9.737999725E0,9.772506730E0
1.199833329E1,7.679031372E-1,1.083746338E-1,9.767787781E0,9.798525319E0
1.200837929E1,8.023315430E-1,1.399589539E-1,9.778116302E0,9.811976500E0
1.201842429E1,9.142987061E-1,1.639091492E-1,9.712852020E0,9.757166735E0
1.202847029E1,8.608598328E-1,1.835183716E-1,9.772877197E0,9.812435343E0
1.203851529E1,9.240284729E-1,1.606159973E-1,9.726623383E0,9.771736209E0
1.204856129E1,8.918453979E-1,1.621128845E-1,9.745484161E0,9.787549762E0
1.205860629E1,8.872050476E-1,1.691482544E-1,9.753567352E0,9.795295811E0
1.206865229E1,9.101074219E-1,1.594184875E-1,9.752968597E0,9.796637496E0
1.207869729E1,9.336085510E-1,1.441502380E-1,9.748028870E0,9.793695475E0
1.208874329E1,9.461824036E-1,1.450483704E-1,9.753866730E0,9.800725297E0
1.209878829E1,1.596579895E0,7.783813477E-2,9.725725250E0,9.856209098E0
1.210883429E1,1.914967804E0,2.215393066E-2,9.699529724E0,9.886782558E0
1.211887929E1,1.591789856E0,6.137237549E-2,9.684261475E0,9.814401756E0
1.212892529E1,1.253343658E0,7.858657837E-2,9.896520081E0,9.975878702E0
1.213897029E1,4.751119995E-1,2.203417969E-1,9.921667786E0,9.935480540E0
1.214901629E1,3.736230469E-1,2.522254944E-1,9.817783813E0,9.828127537E0
1.215906129E1,3.799099731E-1,2.411485291E-1,9.967322845E0,9.977475077E0
1.216910729E1,2.865042114E-1,2.712359619E-1,9.995763702E0,1.000354665E1
1.217915229E1,8.830137634E-1,1.727407837E-1,9.925410004E0,9.966108389E0
1.218919829E1,1.461710358E0,8.607101440E-2,9.960287476E0,1.006733987E1
1.219924329E1,1.610051880E0,8.966354370E-2,9.822723541E0,9.954205361E0
1.220928929E1,1.786534882E0,5.673202515E-2,9.696086884E0,9.859463792E0
1.221933429E1,1.694775696E0,1.212478638E-1,9.683063965E0,9.831006736E0
1.222938029E1,1.702409821E0,9.984237671E-2,9.659562836E0,9.808940915E0
1.223942529E1,1.607058105E0,1.399589539E-1,9.613608398E0,9.748009576E0
1.224947129E1,1.202299805E0,2.035766602E-1,9.831854553E0,9.907185889E0
1.225951629E1,1.104253693E0,2.336640930E-1,9.795629883E0,9.860443191E0
1.226956229E1,1.046773224E0,2.553689575E-1,9.838590546E0,9.897414380E0
1.227960829E1,1.090033264E0,2.415975952E-1,9.926757202E0,9.989346849E0
1.228965329E1,1.542542267E0,1.936972046E-1,1.006102798E1,1.018043414E1
1.229969829E1,2.164947968E0,1.071771240E-1,9.957892456E0,1.019107986E1
1.230974429E1,2.126328278E0,1.624122620E-1,9.893226929E0,1.012045398E1
1.231979029E1,2.039059753E0,2.439926147E-1,9.865684204E0,1.007715346E1
1.232983529E1,2.341580658E0,1.700463867E-1,9.788444824E0,1.006606019E1
1.233988129E1,2.537223816E0,1.886077881E-1,9.496402130E0,9.831313799E0
1.234992629E1,2.639012146E0,2.386038208E-1,9.312434692E0,9.682084321E0
1.235997229E1,2.786006470E0,2.528242493E-1,9.113947449E0,9.533613704E0
1.237001729E1,3.445834351E0,1.676513672E-1,8.911717987E0,9.556181185E0
1.238006329E1,3.793112183E0,1.528321838E-1,8.785680084E0,9.570748782E0
1.239010829E1,3.878434753E0,1.598675537E-1,8.731792145E0,9.555731674E0
1.240015429E1,4.004322968E0,1.633103943E-1,8.824299774E0,9.691725296E0
1.241019929E1,4.079167328E0,1.666035461E-1,8.969797211E0,9.855182638E0
1.242024529E1,4.138294373E0,1.582209778E-1,9.083261261E0,9.982792662E0
1.243029029E1,4.264631653E0,1.607656860E-1,9.059909821E0,1.001473388E1
1.244033629E1,4.531826019E0,1.775308228E-1,8.806636505E0,9.905847303E0
1.245038129E1,4.805756378E0,1.908531189E-1,8.503965912E0,9.769808366E0
1.246042729E1,5.083428955E0,1.426533508E-1,8.264014893E0,9.703377869E0
1.247047229E1,5.345533905E0,1.386117554E-1,8.039032745E0,9.655050152E0
1.248051829E1,5.523962860E0,1.622625732E-1,7.786358185E0,9.548186666E0
1.249056329E1,5.713468781E0,1.498384094E-1,7.608527985E0,9.516085075E0
1.250060929E1,5.864654388E0,1.365161133E-1,7.490423584E0,9.514160668E0
1.251065429E1,6.008056183E0,1.357676697E-1,7.448959808E0,9.570902475E0
1.252070029E1,6.076463928E0,1.781295776E-1,7.496710510E0,9.651725882E0
1.253074529E1,6.212980042E0,1.829196167E-1,7.603887634E0,9.821083837E0
1.254079129E1,6.203549652E0,1.763333130E-1,7.637567596E0,9.841115816E0
1.255083629E1,6.223009186E0,1.231938171E-1,7.699688416E0,9.900819246E0
1.256088229E1,6.437064056E0,8.861572266E-2,7.591313782E0,9.953476345E0
1.257092729E1,6.442003784E0,8.652008057E-2,7.307503967E0,9.741997368E0
1.258097329E1,6.570436707E0,1.276844788E-1,7.162006531E0,9.720148116E0
1.259101829E1,6.917415161E0,2.417472839E-1,6.990912323E0,9.837780714E0
1.260106429E1,7.115603027E0,2.842588806E-1,6.671027527E0,9.757828540E0
1.261110929E1,7.291038208E0,1.806742859E-1,6.409072266E0,9.709175488E0
1.262115529E1,7.462282104E0,2.968327332E-1,6.275998993E0,9.755097500E0
1.263120029E1,7.554490356E0,2.960842896E-1,6.229445801E0,9.796120938E0
1.264124629E1,7.474706268E0,4.022135925E-1,6.143075409E0,9.683510988E0
1.265129129E1,7.450905762E0,3.950285339E-1,6.087241516E0,9.629462783E0
1.266133729E1,7.630083160E0,1.013392639E-1,6.084247742E0,9.759431810E0
1.267138229E1,7.725285187E0,-4.969665527E-2,6.102659454E0,9.845047150E0
1.268142829E1,7.805967407E0,-3.502716064E-2,6.002817078E0,9.847241590E0
1.269147329E1,7.848778381E0,-1.077758789E-2,5.813311157E0,9.767191247E0
1.270151929E1,7.968828735E0,2.140548706E-2,5.579347687E0,9.727888271E0
1.271156429E1,8.056995392E0,1.466949463E-2,5.490282898E0,9.749799805E0
1.272161029E1,8.121810608E0,6.062393188E-2,5.443430328E0,9.777444275E0
1.273165529E1,8.213120728E0,1.190025330E-1,5.340743866E0,9.797604745E0
1.274170129E1,8.260422363E0,8.771759033E-2,5.194797363E0,9.758493308E0
1.275174629E1,8.295299835E0,5.134323120E-2,5.045557709E0,9.709391746E0
1.276179229E1,8.409512329E0,3.113525391E-2,4.900209961E0,9.733084027E0
1.277183829E1,8.501720581E0,8.187973022E-2,4.791236572E0,9.759195921E0
1.278188329E1,8.499624939E0,6.780899048E-2,4.788242798E0,9.755792702E0
1.279192929E1,8.494834900E0,3.742218018E-2,4.732558594E0,9.724234224E0
1.280197429E1,8.509654083E0,2.035766602E-2,4.587061157E0,9.667251787E0
1.281202029E1,8.694519653E0,-1.451980591E-2,4.339625702E0,9.717367651E0
1.282206529E1,8.854237518E0,9.565109253E-2,4.163891144E0,9.784920062E0
1.283211129E1,8.888216858E0,9.400451660E-2,4.105811920E0,9.791165778E0
1.284215629E1,8.841064911E0,2.095642090E-3,4.073778534E0,9.734480196E0
1.285220229E1,8.923393707E0,-7.679031372E-2,4.037553864E0,9.794625731E0
1.286224729E1,8.949888611E0,1.167572021E-1,4.076472931E0,9.835231057E0
1.287229329E1,8.825646973E0,3.906875610E-1,4.123475189E0,9.749242478E0
1.288233829E1,8.916657715E0,6.137237549E-2,4.159999237E0,9.839519553E0
1.289238429E1,8.890911255E0,1.282832336E-1,4.177812195E0,9.824401980E0
1.290242929E1,8.888067169E0,1.098715210E-1,4.156107330E0,9.812392058E0
1.291247529E1,8.909472656E0,1.404080200E-1,4.167333984E0,9.836924822E0
1.292252083E1,8.954828339E0,1.366658020E-1,4.093687134E0,9.847126610E0
1.293256683E1,8.918154602E0,9.280700684E-2,4.103566589E0,9.817400542E0
1.294261183E1,8.929830322E0,1.112187195E-1,4.097878418E0,9.825825498E0
1.295265783E1,8.984466705E0,1.188528442E-1,4.008065186E0,9.838666297E0
1.296270283E1,9.044342194E0,1.013392639E-1,3.833228760E0,9.823646883E0
1.297274883E1,9.084159393E0,7.020401001E-2,3.749552765E0,9.827819006E0
1.298279383E1,9.082063751E0,8.397537231E-2,3.642675018E0,9.785704631E0
1.299283983E1,9.088500366E0,4.730163574E-2,3.523522797E0,9.747732518E0
1.300288483E1,9.127569122E0,7.140151978E-2,3.481909332E0,9.769406781E0
1.301293083E1,9.185199280E0,1.419049072E-1,3.408112793E0,9.798125107E0
1.302297583E1,9.205257568E0,6.885681152E-2,3.206332397E0,9.747926734E0
1.303302183E1,9.207802277E0,-3.592529297E-3,2.966830444E0,9.673971189E0
1.304306683E1,9.234895935E0,2.320175171E-2,2.903063049E0,9.680476038E0
1.305311283E1,9.192084961E0,5.269042969E-2,2.949466553E0,9.653836292E0
1.306315783E1,9.540709991E0,3.442840576E-3,3.065475311E0,1.002109265E1
1.307320383E1,9.581575012E0,6.277944946E-1,3.027154999E0,1.006798754E1
1.308324883E1,9.329948273E0,2.604583740E-2,2.944377136E0,9.783556096E0
1.309329483E1,9.426347809E0,8.876541138E-2,2.686762848E0,9.802173581E0
1.310333983E1,9.548344116E0,-2.064207458E-1,2.264191589E0,9.815296656E0
1.311338583E1,9.492210846E0,1.429527283E-1,2.569257202E0,9.834814935E0
1.312343083E1,9.366921387E0,2.859054565E-1,2.713706818E0,9.756288377E0
1.313347683E1,9.473499756E0,2.721340942E-1,2.623444519E0,9.833804744E0
1.314352283E1,9.507778473E0,1.827699280E-1,2.440674591E0,9.817746625E0
1.315356783E1,9.564211121E0,7.858657837E-2,2.169588318E0,9.807518732E0
1.316361383E1,9.602830811E0,1.914518738E-1,2.152523804E0,9.842985935E0
1.317365883E1,9.524992676E0,2.191442871E-1,2.326611786E0,9.807478376E0
1.318370483E1,9.470505981E0,1.917512512E-1,2.432741089E0,9.779850781E0
1.319374983E1,9.467063141E0,1.440005493E-1,2.505789185E0,9.794130901E0
1.320379583E1,9.506880341E0,1.417552185E-1,2.375859375E0,9.800284492E0
1.321384083E1,9.524992676E0,1.516346741E-1,2.172133026E0,9.770703170E0
1.322388683E1,9.568701782E0,1.525328064E-1,2.087708588E0,9.794990924E0
1.323393183E1,9.577234039E0,1.474433899E-1,1.991758118E0,9.783263862E0
1.324397783E1,9.628726959E0,1.267863464E-1,1.849104767E0,9.805490608E0
1.325402283E1,9.648934937E0,1.258882141E-1,1.711391144E0,9.800339428E0
1.326406883E1,9.655820618E0,1.252894592E-1,1.679357758E0,9.801571901E0
1.327411383E1,9.626930695E0,1.332229614E-1,1.737886047E0,9.783444734E0
1.328415983E1,9.611213379E0,1.279838562E-1,1.694027252E0,9.760201372E0
1.329420483E1,9.658365326E0,1.055305481E-1,1.512903900E0,9.776708837E0
1.330425083E1,9.787097626E0,1.190025330E-1,1.179547119E0,9.858639508E0
1.331429583E1,9.837842102E0,1.354682922E-1,8.803193665E-1,9.878079321E0
1.332434183E1,9.856852570E0,1.368154907E-1,8.195457458E-1,9.891810567E0
1.333438683E1,9.862391052E0,1.556762695E-1,8.414002991E-1,9.899441743E0
1.334443283E1,9.795480194E0,1.672023010E-1,8.695417786E-1,9.835420263E0
1.335447783E1,9.802814941E0,1.550775146E-1,8.734336853E-1,9.842871340E0
1.336452383E1,9.815388794E0,1.559756470E-1,8.490344238E-1,9.853275853E0
1.337456883E1,9.829010468E0,1.474433899E-1,8.396040344E-1,9.865907017E0
1.338461483E1,9.767787781E0,1.408570862E-1,9.672885132E-1,9.816576079E0
1.339465983E1,9.723629608E0,1.450483704E-1,1.117126923E0,9.788666117E0
1.340470583E1,9.786199493E0,1.191522217E-1,9.201365662E-1,9.830083879E0
1.341475083E1,9.794132996E0,1.190025330E-1,8.297245789E-1,9.829936196E0
1.342479683E1,9.783205719E0,1.357676697E-1,8.869056702E-1,9.824263263E0
1.343484183E1,9.773775330E0,1.472937012E-1,8.274792480E-1,9.809847172E0
1.344488783E1,9.788893890E0,1.306782532E-1,7.538323975E-1,9.818746544E0
1.345493283E1,9.801018677E0,1.462458801E-1,7.020401001E-1,9.827218084E0
1.346497883E1,9.801318054E0,1.398092651E-1,7.237449646E-1,9.828997355E0
1.347502483E1,9.792187042E0,1.437011719E-1,7.571255493E-1,9.822464874E0
1.348506983E1,9.761351166E0,1.431024170E-1,7.857160950E-1,9.793967769E0
1.349511583E1,9.768985291E0,1.445993042E-1,7.062313843E-1,9.795547220E0
1.350516083E1,9.806257782E0,1.341210938E-1,4.243675232E-1,9.816352069E0
1.351520683E1,9.815688171E0,1.288819885E-1,1.540296936E-1,9.817742612E0
1.352525183E1,9.848170624E0,1.196012878E-1,-1.348695374E-1,9.849820247E0
1.353529783E1,9.848919067E0,1.145118713E-1,-3.147953796E-1,9.854613939E0
1.354534283E1,9.818831635E0,1.190025330E-1,-4.111949158E-1,9.828158400E0
1.355538883E1,9.830956421E0,1.508862305E-1,-4.885839844E-1,9.844246295E0
1.356543383E1,9.818981323E0,1.362167358E-1,-4.556524658E-1,9.830491768E0
1.357547983E1,9.819430389E0,1.278341675E-1,-3.791615295E-1,9.827579469E0
1.358552483E1,9.822124786E0,1.411564636E-1,-3.508703613E-1,9.829403363E0
1.359557083E1,9.823921051E0,1.333726501E-1,-2.737806702E-1,9.828640238E0
1.360561583E1,9.825268250E0,1.408570862E-1,-3.058140564E-1,9.831035507E0
1.361566183E1,9.807754669E0,1.420545959E-1,-2.025288391E-1,9.810874023E0
1.362570683E1,9.815388794E0,1.386117554E-1,-1.276844788E-1,9.817197855E0
1.363575283E1,9.833201752E0,1.225950623E-1,-2.356100464E-1,9.836788009E0
1.364579783E1,9.815388794E0,1.263372803E-1,-2.812651062E-1,9.820230565E0
1.365584383E1,9.804760895E0,1.246907043E-1,-2.805166626E-1,9.809565412E0
1.366588883E1,9.821076965E0,1.181044006E-1,-2.525248718E-1,9.825032836E0
1.367593483E1,9.818681946E0,9.864486694E-2,-2.531236267E-1,9.822439490E0
1.368597983E1,9.799521790E0,1.055305481E-1,-2.992277527E-1,9.804657120E0
1.369602583E1,9.792785797E0,1.170565796E-1,-2.989283752E-1,9.798046442E0
1.370607083E1,9.806407471E0,1.245410156E-1,-4.028123474E-1,9.815467168E0
1.371611683E1,9.823322296E0,1.366658020E-1,-6.123765564E-1,9.843340059E0
1.372616183E1,9.829609222E0,1.429527283E-1,-7.830216980E-1,9.861783608E0
1.373620783E1,9.804311829E0,1.565744019E-1,-7.280859375E-1,9.832555879E0
1.374625383E1,9.800120544E0,1.463955688E-1,-6.230044556E-1,9.820994293E0
1.375629883E1,9.797426147E0,1.428030396E-1,-6.038442993E-1,9.817055555E0
1.376634483E1,9.806108093E0,1.404080200E-1,-6.144721985E-1,9.826344510E0
1.377638983E1,9.811945953E0,1.327738953E-1,-5.770500183E-1,9.829796489E0
1.378643583E1,9.839488678E0,1.219963074E-1,-5.471122742E-1,9.855442780E0
1.379648083E1,9.839039612E0,1.182540894E-1,-5.810916138E-1,9.856893627E0
1.380652683E1,9.834998016E0,1.133143616E-1,-5.927673340E-1,9.853496803E0
1.381657183E1,9.838590546E0,1.181044006E-1,-4.908293152E-1,9.851534195E0
1.382661783E1,9.808952179E0,1.228944397E-1,-3.847000122E-1,9.817262347E0
1.383666283E1,9.808802490E0,1.426533508E-1,-2.713856506E-1,9.813592943E0
1.384670883E1,9.820478210E0,1.279838562E-1,-2.176473999E-1,9.823723456E0
1.385675383E1,9.830806732E0,1.519340515E-1,-1.924996948E-1,9.833865013E0
1.386679983E1,9.829459534E0,1.558259583E-1,-9.505233765E-2,9.831154124E0
1.387684483E1,9.820029144E0,1.513352966E-1,-5.987548828E-4,9.821195198E0
1.388689083E1,9.831854553E0,1.297801208E-1,1.196012878E-1,9.833438427E0
1.389693583E1,9.809550934E0,1.245410156E-1,2.600093079E-1,9.813786467E0
1.390698183E1,9.800120544E0,1.344204712E-1,3.564088440E-1,9.807520523E0
1.391702671E1,9.812844086E0,1.191522217E-1,3.668870544E-1,9.820423230E0
1.392707271E1,9.802814941E0,1.287322998E-1,3.915856934E-1,9.811477571E0
1.393711771E1,9.780511322E0,1.193019104E-1,4.599934387E-1,9.792049256E0
1.394716371E1,9.775571594E0,1.312770081E-1,5.246589661E-1,9.790520960E0
1.395720871E1,9.788145447E0,1.341210938E-1,5.556445312E-1,9.804821294E0
1.396725471E1,9.797725525E0,1.273851013E-1,5.632786560E-1,9.814730525E0
1.397730071E1,9.804012451E0,1.508862305E-1,6.209088135E-1,9.824813207E0
1.398734571E1,9.773775330E0,1.453477478E-1,7.367678833E-1,9.802583184E0
1.399739171E1,9.773026886E0,1.534309387E-1,8.271798706E-1,9.809170307E0
1.400743671E1,9.769584045E0,1.484912109E-1,7.843688965E-1,9.802145511E0
1.401748271E1,9.793085175E0,1.510359192E-1,6.584806824E-1,9.816360114E0
1.402752771E1,9.805958405E0,1.405577087E-1,6.532415771E-1,9.828697841E0
1.403757371E1,9.770033112E0,1.357676697E-1,7.813751221E-1,9.802169502E0
1.404761871E1,9.777367859E0,1.375639343E-1,7.658074951E-1,9.808277484E0
1.405766471E1,9.786199493E0,1.228944397E-1,7.096742249E-1,9.812667378E0
1.406770971E1,9.778864746E0,1.263372803E-1,6.842271423E-1,9.803587283E0
1.407775571E1,9.793983307E0,1.318757629E-1,6.593788147E-1,9.817040320E0
1.408780071E1,9.784552917E0,1.407073975E-1,7.135661316E-1,9.811546819E0
1.409784671E1,9.787846069E0,1.354682922E-1,7.289840698E-1,9.815890184E0
1.410789171E1,9.781409454E0,1.362167358E-1,6.715036011E-1,9.805378269E0
1.411793771E1,9.787846069E0,1.329235840E-1,6.569837952E-1,9.810770972E0
1.412798271E1,9.784403229E0,1.462458801E-1,6.265969849E-1,9.805537118E0
1.413802871E1,9.782008209E0,1.404080200E-1,6.981481934E-1,9.807895285E0
1.414807371E1,9.780211945E0,1.407073975E-1,8.023315430E-1,9.814075614E0
1.415811971E1,9.779912567E0,1.408570862E-1,7.539820862E-1,9.809944930E0
1.416816471E1,9.789792023E0,1.375639343E-1,6.191125488E-1,9.810313554E0
1.417821071E1,9.811945953E0,1.243913269E-1,4.153862000E-1,9.821522402E0
1.418825571E1,9.822274475E0,1.242416382E-1,2.091151428E-1,9.825285797E0
1.419830171E1,9.823471985E0,1.300794983E-1,7.214996338E-2,9.824598115E0
1.420834771E1,9.833650818E0,1.348695374E-1,4.221221924E-2,9.834666241E0
1.421839271E1,9.814490662E0,1.389111328E-1,9.415420532E-2,9.815925237E0
1.422843871E1,9.803114319E0,1.348695374E-1,1.805245972E-1,9.805703915E0
1.423848371E1,9.813143463E0,1.296304321E-1,1.031355286E-1,9.814541539E0
1.424852971E1,9.821226654E0,1.465452576E-1,-2.559677124E-2,9.822353267E0
1.425857471E1,9.819580078E0,1.459465027E-1,-4.340972900E-3,9.820665565E0
1.426862071E1,9.823471985E0,1.332229614E-1,-1.242416382E-2,9.824383164E0
1.427866571E1,9.808203735E0,1.306782532E-1,-1.049317932E-1,9.809635467E0
1.428871171E1,9.829758911E0,1.199006653E-1,-1.437011719E-1,9.831540390E0
1.429875671E1,9.821076965E0,1.248403931E-1,-2.140548706E-1,9.824202633E0
1.430880271E1,9.845176849E0,1.312770081E-1,-2.957849121E-1,9.850493874E0
1.431884771E1,9.841284943E0,1.275347900E-1,-2.498304749E-1,9.845281596E0
1.432889371E1,9.824370117E0,1.314266968E-1,-1.414558411E-1,9.826267396E0
1.433893871E1,9.828112335E0,1.231938171E-1,-1.119671631E-1,9.829522137E0
1.434898471E1,9.819580078E0,1.359173584E-1,-7.948471069E-2,9.820842340E0
1.435902971E1,9.810898132E0,1.408570862E-1,-3.742218018E-2,9.811980600E0
1.436907571E1,9.800419922E0,1.278341675E-1,1.871109009E-2,9.801271465E0
1.437912071E1,9.822873230E0,1.474433899E-1,1.856140137E-2,9.823997281E0
1.438916671E1,9.834399261E0,1.393601990E-1,1.631607056E-2,9.835400160E0
1.439921171E1,9.819131012E0,1.333726501E-1,9.714797974E-2,9.820517289E0
1.440925771E1,9.806108093E0,1.303788757E-1,1.426533508E-1,9.808012264E0
1.441930371E1,9.823322296E0,1.185534668E-1,8.487350464E-2,9.824404276E0
1.442934871E1,9.818831635E0,1.239422607E-1,1.302291870E-2,9.819622495E0
1.443939471E1,9.827663269E0,1.377136230E-1,4.775070190E-2,9.828744096E0
1.444943971E1,9.823921051E0,1.234931946E-1,1.163081360E-1,9.825385640E0
1.445948571E1,9.827513580E0,1.293310547E-1,1.549278259E-1,9.829585562E0
1.446953071E1,9.805060272E0,1.257385254E-1,1.360670471E-1,9.806810458E0
1.447957671E1,9.801916809E0,1.342707825E-1,1.037342834E-1,9.803385261E0
1.448962171E1,9.816286926E0,1.302291870E-1,1.014889526E-1,9.817675319E0
1.449966771E1,9.822723541E0,1.357676697E-1,7.259902954E-2,9.823930031E0
1.450971271E1,9.821076965E0,1.466949463E-1,-5.688171387E-3,9.822174124E0
1.451975871E1,9.822573853E0,1.413061523E-1,1.766326904E-2,9.823606085E0
1.452980371E1,9.812245331E0,1.420545959E-1,7.304809570E-2,9.813545433E0
1.453984971E1,9.809101868E0,1.377136230E-1,7.604187012E-2,9.810363238E0
1.454989471E1,9.822424164E0,1.324745178E-1,1.522334290E-1,9.824496983E0
1.455994071E1,9.815538483E0,1.181044006E-1,1.725910950E-1,9.817766143E0
1.456998571E1,9.832602997E0,1.173559570E-1,4.685256958E-2,9.833414935E0
1.458003171E1,9.823322296E0,1.224453735E-1,-3.203338623E-2,9.824137618E0
1.459007671E1,9.818831635E0,1.225950623E-1,5.284011841E-2,9.819739115E0
1.460012271E1,9.809101868E0,1.302291870E-1,1.193019104E-1,9.810691721E0
1.461016871E1,9.821376343E0,1.308279419E-1,7.903564453E-2,9.822565645E0
1.462021371E1,9.814939728E0,1.450483704E-1,7.379653931E-2,9.816288852E0
1.463025971E1,9.818232880E0,1.417552185E-1,1.231938171E-1,9.820028928E0
1.464030471E1,9.804760895E0,1.544787598E-1,2.154020691E-1,9.808343282E0
1.465035071E1,9.786199493E0,1.588197327E-1,2.459385681E-1,9.790577614E0
1.466039571E1,9.807904358E0,1.383123779E-1,1.556762695E-1,9.810114847E0
1.467044171E1,9.810000000E0,1.410067749E-1,9.400451660E-2,9.811463691E0
1.468048671E1,9.799821167E0,1.381626892E-1,8.831634521E-2,9.801192969E0
1.469053271E1,9.816436615E0,1.190025330E-1,9.610015869E-2,9.817628260E0
1.470057771E1,9.825567627E0,1.227447510E-1,8.367599487E-2,9.826690549E0
1.471062371E1,9.816436615E0,1.197509766E-1,5.822891235E-2,9.817339697E0
1.472066871E1,9.815837860E0,1.287322998E-1,2.230361938E-2,9.816707307E0
1.473071471E1,9.810299377E0,1.351689148E-1,8.891510010E-2,9.811633422E0
1.474075971E1,9.815688171E0,1.318757629E-1,1.745370483E-1,9.818125517E0
1.475080571E1,9.794282684E0,1.308279419E-1,2.297721863E-1,9.797851015E0
1.476085071E1,9.804910583E0,1.350192261E-1,1.549278259E-1,9.807064004E0
1.477089671E1,9.826016693E0,1.354682922E-1,1.781295776E-2,9.826966623E0
1.478094171E1,9.823621674E0,1.333726501E-1,-4.790039062E-3,9.824528182E0
1.479098771E1,9.810449066E0,1.249900818E-1,6.631210327E-2,9.811469344E0
1.480103371E1,9.820777588E0,1.342707825E-1,1.372645569E-1,9.822654561E0
1.481107871E1,9.820777588E0,1.423539734E-1,1.368154907E-1,9.822762115E0
1.482112471E1,9.818831635E0,1.236428833E-1,1.112187195E-1,9.820239907E0
1.483116971E1,9.822274475E0,1.288819885E-1,1.431024170E-1,9.824162292E0
1.484121571E1,9.813592529E0,1.296304321E-1,2.026785278E-1,9.816541192E0
1.485126071E1,9.796977081E0,1.314266968E-1,2.556683350E-1,9.801193764E0
1.486130671E1,9.825867004E0,1.216969299E-1,2.180964661E-1,9.829040574E0
1.487135171E1,9.796528015E0,1.300794983E-1,1.176553345E-1,9.798098010E0
1.488139771E1,9.811945953E0,1.309776306E-1,6.077362061E-2,9.813008303E0
1.489144271E1,9.830207977E0,1.242416382E-1,1.260379028E-1,9.831800975E0
1.490148871E1,9.822124786E0,1.384620667E-1,1.734892273E-1,9.824632592E0
1.491153371E1,9.820478210E0,1.308279419E-1,2.303709412E-1,9.824051048E0
1.492157892E1,9.795180817E0,1.335223389E-1,2.664459229E-1,9.799713714E0
1.493162392E1,9.796827393E0,1.401086426E-1,2.565664673E-1,9.801187874E0
1.494166992E1,9.806257782E0,1.299298096E-1,3.011737061E-1,9.811741896E0
1.495171492E1,9.809251556E0,1.365161133E-1,3.366499329E-1,9.815976056E0
1.496176092E1,9.807604980E0,1.300794983E-1,2.320175171E-1,9.811211355E0
1.497180692E1,9.819580078E0,1.347198486E-1,1.637594604E-1,9.821869451E0
1.498185192E1,9.821076965E0,1.404080200E-1,2.381547546E-1,9.824967423E0
1.499189792E1,9.813293152E0,1.294807434E-1,3.251239014E-1,9.819531216E0
1.500194292E1,9.795480194E0,1.398092651E-1,3.456312561E-1,9.802573123E0
1.501198892E1,9.789193268E0,1.290316772E-1,3.662882996E-1,9.796893443E0
1.502203392E1,9.791737976E0,1.444496155E-1,3.528163147E-1,9.799156986E0
1.503207992E1,9.806856537E0,1.263372803E-1,3.128494263E-1,9.812658712E0
1.504212492E1,9.824220428E0,1.190025330E-1,3.519181824E-1,9.831241785E0
1.505217092E1,9.820478210E0,1.309776306E-1,3.356021118E-1,9.827083810E0
1.506221592E1,9.802515564E0,1.276844788E-1,3.055146790E-1,9.808106541E0
1.507226192E1,9.820029144E0,1.390608215E-1,3.110531616E-1,9.825938346E0
1.508230692E1,9.813891907E0,1.372645569E-1,2.748284912E-1,9.818698825E0
1.509235292E1,9.817035370E0,1.425036621E-1,2.207908630E-1,9.820551886E0
1.510239792E1,9.806706848E0,1.393601990E-1,2.387535095E-1,9.810602617E0
1.511244392E1,9.810000000E0,1.342707825E-1,2.326162720E-1,9.813676119E0
1.512248892E1,9.814640350E0,1.287322998E-1,2.267784119E-1,9.818103975E0
1.513253492E1,9.810299377E0,1.321751404E-1,2.122586060E-1,9.813485510E0
1.514258092E1,9.804611206E0,1.239422607E-1,1.733395386E-1,9.806926592E0
1.515262592E1,9.826166382E0,1.246907043E-1,1.291813660E-1,9.827806539E0
1.516267192E1,9.827513580E0,1.264869690E-1,1.101708984E-1,9.828944997E0
1.517271692E1,9.820178833E0,1.320254517E-1,1.305285645E-1,9.821933656E0
1.518276292E1,9.812993774E0,1.335223389E-1,1.594184875E-1,9.815196854E0
1.519280792E1,9.818382568E0,1.252894592E-1,1.451980591E-1,9.820255403E0
1.520285392E1,9.814640350E0,1.303788757E-1,1.204994202E-1,9.816245920E0
1.521289892E1,9.832602997E0,1.246907043E-1,-5.987548828E-3,9.833395411E0
1.522294492E1,9.865534515E0,1.255888367E-1,-1.657054138E-1,9.867725276E0
1.523298992E1,9.855355682E0,1.366658020E-1,-5.718109131E-2,9.856469086E0
1.524303592E1,9.811496887E0,1.335223389E-1,1.194515991E-1,9.813132429E0
1.525308092E1,9.806407471E0,1.288819885E-1,2.511776733E-1,9.810470339E0
1.526312692E1,9.805958405E0,1.523831177E-1,2.941383362E-1,9.811552283E0
1.527317292E1,9.816885681E0,1.330732727E-1,2.743794250E-1,9.821620897E0
1.528321792E1,9.806257782E0,1.275347900E-1,3.128494263E-1,9.812075803E0
1.529326392E1,9.801018677E0,1.264869690E-1,4.044589233E-1,9.810175996E0
1.530330892E1,9.797725525E0,1.309776306E-1,4.055067444E-1,9.806988137E0
1.531335492E1,9.813442841E0,1.368154907E-1,3.784130859E-1,9.821689026E0
1.532339992E1,9.834249573E0,1.392105103E-1,2.234852600E-1,9.837773624E0
1.533344592E1,9.846524048E0,1.423539734E-1,1.597178650E-1,9.848848170E0
1.534349092E1,9.814041595E0,1.350192261E-1,2.201921082E-1,9.817439951E0
1.535353692E1,9.806706848E0,1.294807434E-1,3.323089600E-1,9.813189783E0
1.536358192E1,9.807604980E0,1.399589539E-1,3.932322693E-1,9.816482852E0
1.537362792E1,9.795629883E0,1.423539734E-1,4.213737488E-1,9.805722069E0
1.538367292E1,9.802066498E0,1.291813660E-1,4.237687683E-1,9.812072942E0
1.539371892E1,9.805659027E0,1.311273193E-1,3.932322693E-1,9.814416689E0
1.540376392E1,9.822274475E0,1.287322998E-1,3.595523071E-1,9.829696116E0
1.541380992E1,9.814490662E0,1.410067749E-1,3.637435913E-1,9.822241051E0
1.542385592E1,9.813442841E0,1.323248291E-1,4.408332825E-1,9.824230465E0
1.543390092E1,9.802665253E0,1.197509766E-1,4.679269409E-1,9.814557656E0
1.544394692E1,9.815987549E0,1.411564636E-1,4.291575623E-1,9.826378423E0
1.545399192E1,9.807455292E0,1.431024170E-1,3.796105957E-1,9.815842389E0
1.546403792E1,9.810149689E0,1.392105103E-1,4.170327759E-1,9.819996579E0
1.547408292E1,9.792636108E0,1.404080200E-1,4.788542175E-1,9.805342305E0
1.548412892E1,9.801767120E0,1.239422607E-1,5.155279541E-1,9.816097465E0
1.549417392E1,9.793833618E0,1.395098877E-1,5.373825073E-1,9.809557580E0
1.550421992E1,9.811496887E0,1.279838562E-1,5.016069031E-1,9.825144300E0
1.551426492E1,9.785600739E0,1.395098877E-1,5.102888489E-1,9.799889771E0
1.552431092E1,9.801318054E0,1.402583313E-1,5.321434021E-1,9.816755299E0
1.553435592E1,9.802515564E0,1.291813660E-1,5.584886169E-1,9.819262128E0
1.554440192E1,9.790690155E0,1.258882141E-1,4.739144897E-1,9.802961619E0
1.555444792E1,9.816436615E0,1.348695374E-1,3.451821899E-1,9.823429562E0
1.556449292E1,9.842931519E0,1.440005493E-1,2.761756897E-1,9.847858145E0
1.557453892E1,9.834698639E0,1.327738953E-1,3.360511780E-1,9.841334087E0
1.558458392E1,9.805659027E0,1.420545959E-1,4.209246826E-1,9.815717297E0
1.559462992E1,9.793085175E0,1.342707825E-1,4.873864746E-1,9.806125201E0
1.560467492E1,9.801318054E0,1.475930786E-1,4.872367859E-1,9.814531013E0
1.561472092E1,9.807904358E0,1.401086426E-1,4.709207153E-1,9.820202882E0
1.562476592E1,9.795480194E0,1.468446350E-1,5.066963196E-1,9.809675669E0
1.563481192E1,9.803413696E0,1.437011719E-1,4.876858521E-1,9.816588390E0
1.564485692E1,9.805209961E0,1.392105103E-1,4.185296631E-1,9.815125523E0
1.565490292E1,9.820777588E0,1.389111328E-1,3.661386108E-1,9.828582106E0
1.566494792E1,9.827663269E0,1.350192261E-1,3.787124634E-1,9.835884233E0
1.567499392E1,9.800419922E0,1.393601990E-1,4.315525818E-1,9.810906663E0
1.568503892E1,9.796977081E0,1.263372803E-1,4.802014160E-1,9.809552204E0
1.569508492E1,9.801168365E0,1.273851013E-1,4.879852295E-1,9.814135615E0
1.570513092E1,9.808203735E0,1.401086426E-1,4.665797424E-1,9.820294680E0
1.571517592E1,9.804162140E0,1.501377869E-1,4.834945679E-1,9.817224843E0
1.572522192E1,9.814790039E0,1.335223389E-1,4.558021545E-1,9.826275354E0
1.573526692E1,9.808203735E0,1.330732727E-1,4.463717651E-1,9.819257445E0
1.574531292E1,9.812095642E0,1.369651794E-1,4.676275635E-1,9.824187289E0
1.575535792E1,9.812844086E0,1.375639343E-1,4.593946838E-1,9.824554767E0
1.576540392E1,9.818981323E0,1.447489929E-1,4.522096252E-1,9.830454722E0
1.577544892E1,9.815388794E0,1.401086426E-1,4.619393921E-1,9.827251681E0
1.578549492E1,9.791288910E0,1.437011719E-1,5.066963196E-1,9.805443881E0
1.579553992E1,9.788444824E0,1.368154907E-1,5.929170227E-1,9.807340167E0
1.580558592E1,9.787397003E0,1.440005493E-1,6.333329773E-1,9.808923841E0
1.581563092E1,9.798623657E0,1.344204712E-1,6.135740662E-1,9.818735538E0
1.582567692E1,9.789043579E0,1.374142456E-1,5.869294739E-1,9.807585996E0
1.583572292E1,9.805659027E0,1.423539734E-1,4.954696655E-1,9.819200772E0
1.584576792E1,9.811646576E0,1.459465027E-1,4.132905579E-1,9.821431566E0
1.585581392E1,9.819430389E0,1.299298096E-1,4.158352661E-1,9.829090187E0
1.586585892E1,9.802216187E0,1.413061523E-1,4.649331665E-1,9.814253535E0
1.587590492E1,9.795629883E0,1.507365417E-1,5.016069031E-1,9.809622612E0
1.588594992E1,9.801767120E0,1.550775146E-1,5.002597046E-1,9.815749971E0
1.589599592E1,9.804012451E0,1.378633118E-1,5.149291992E-1,9.818493699E0
1.590604092E1,9.814340973E0,1.408570862E-1,4.590953064E-1,9.826082533E0
1.591608692E1,9.802665253E0,1.329235840E-1,4.345463562E-1,9.813192410E0
1.592613242E1,9.801318054E0,1.293310547E-1,4.358935547E-1,9.811858403E0
1.593617842E1,9.795480194E0,1.260379028E-1,4.156855774E-1,9.805106439E0
1.594622342E1,9.806407471E0,1.228944397E-1,3.830534363E-1,9.814655392E0
1.595626942E1,9.811945953E0,1.318757629E-1,3.661386108E-1,9.819660488E0
1.596631542E1,9.815239105E0,1.294807434E-1,3.049159241E-1,9.820827749E0
1.597636042E1,9.820627899E0,1.504371643E-1,3.115022278E-1,9.826718542E0
1.598640642E1,9.811496887E0,1.408570862E-1,3.915856934E-1,9.820318286E0
1.599645142E1,9.802515564E0,1.389111328E-1,4.572990417E-1,9.814159674E0
1.600649742E1,9.815538483E0,1.504371643E-1,4.921765137E-1,9.829021557E0
1.601654242E1,9.805209961E0,1.550775146E-1,5.291496277E-1,9.820702151E0
1.602658842E1,9.801467743E0,1.454974365E-1,5.255570984E-1,9.816626186E0
1.603663342E1,9.798773346E0,1.276844788E-1,4.899311829E-1,9.811844627E0
1.604667942E1,9.817783813E0,1.270857239E-1,4.251159668E-1,9.827805115E0
1.605672442E1,9.826316071E0,1.305285645E-1,3.525169373E-1,9.833503619E0
1.606677042E1,9.808054047E0,1.481918335E-1,3.435356140E-1,9.815187299E0
1.607681642E1,9.801018677E0,1.411564636E-1,3.661386108E-1,9.808870971E0
1.608686142E1,9.799372101E0,1.315763855E-1,4.119433594E-1,9.808909381E0
1.609690742E1,9.806407471E0,1.323248291E-1,4.589456177E-1,9.818032818E0
1.610695242E1,9.817334747E0,1.386117554E-1,4.580474854E-1,9.828991925E0
1.611699842E1,9.817334747E0,1.435514832E-1,4.658312988E-1,9.829428639E0
1.612704342E1,9.806257782E0,1.312770081E-1,4.493655396E-1,9.817426074E0
1.613708942E1,9.793983307E0,1.381626892E-1,4.070036316E-1,9.803410116E0
1.614713442E1,9.799372101E0,1.417552185E-1,4.285588074E-1,9.809763033E0
1.615718042E1,9.810449066E0,1.398092651E-1,4.385879517E-1,9.821243144E0
1.616722542E1,9.802515564E0,1.323248291E-1,4.405339050E-1,9.813301756E0
1.617727142E1,9.810449066E0,1.303788757E-1,4.281097412E-1,9.820651072E0
1.618731642E1,9.799821167E0,1.282832336E-1,4.279600525E-1,9.810000066E0
1.619736242E1,9.804012451E0,1.526824951E-1,4.343966675E-1,9.814819028E0
1.620740842E1,9.805209961E0,1.333726501E-1,4.004173279E-1,9.814288801E0
1.621745342E1,9.807155914E0,1.492396545E-1,4.267625427E-1,9.817571282E0
1.622749942E1,9.794132996E0,1.339714050E-1,4.737648010E-1,9.806500016E0
1.623754442E1,9.793683929E0,1.234931946E-1,4.827461243E-1,9.806351987E0
1.624759042E1,9.804461517E0,1.417552185E-1,4.233197021E-1,9.814619695E0
1.625763542E1,9.822573853E0,1.477427673E-1,3.815565491E-1,9.831092026E0
1.626768142E1,9.813592529E0,1.264869690E-1,4.037104797E-1,9.822707337E0
1.627772642E1,9.816735992E0,1.335223389E-1,4.107458496E-1,9.826232539E0
1.628777242E1,9.822573853E0,1.297801208E-1,4.516108704E-1,9.833806605E0
1.629781742E1,9.813143463E0,1.269360352E-1,4.700225830E-1,9.825213413E0
1.630786342E1,9.799821167E0,1.410067749E-1,4.430786133E-1,9.810845859E0
1.631790942E1,9.812245331E0,1.380130005E-1,4.796026611E-1,9.824928739E0
1.632795442E1,9.789193268E0,1.513352966E-1,5.384303284E-1,9.805157542E0
1.633800042E1,9.774224396E0,1.323248291E-1,5.647755432E-1,9.791421951E0
1.634804542E1,9.800120544E0,1.402583313E-1,5.331912231E-1,9.815616535E0
1.635809142E1,9.816137238E0,1.405577087E-1,4.538562012E-1,9.827629022E0
1.636813642E1,9.814041595E0,1.407073975E-1,4.646337891E-1,9.826041704E0
1.637818242E1,9.808203735E0,1.281335449E-1,5.005590820E-1,9.821804219E0
1.638822742E1,9.804611206E0,1.345701599E-1,5.035528564E-1,9.818455862E0
1.639827342E1,9.811047821E0,1.381626892E-1,4.975653076E-1,9.824628212E0
1.640831842E1,9.804162140E0,1.350192261E-1,5.043013000E-1,9.818052009E0
1.641836442E1,9.794282684E0,1.309776306E-1,5.031037903E-1,9.808070242E0
1.642841042E1,9.794282684E0,1.276844788E-1,4.948709106E-1,9.807607957E0
1.643845542E1,9.819430389E0,1.221459961E-1,4.999603271E-1,9.832908682E0
1.644850142E1,9.805808716E0,1.419049072E-1,4.526586914E-1,9.817276683E0
1.645854642E1,9.815388794E0,1.339714050E-1,4.583468628E-1,9.826997881E0
1.646859242E1,9.812993774E0,1.312770081E-1,4.849914551E-1,9.825848420E0
1.647863742E1,9.801617432E0,1.438508606E-1,5.361849976E-1,9.817326097E0
1.648868342E1,9.793384552E0,1.477427673E-1,5.586383057E-1,9.810417201E0
1.649872842E1,9.798923035E0,1.437011719E-1,5.698649597E-1,9.816531401E0
1.650877442E1,9.791288910E0,1.335223389E-1,5.676196289E-1,9.808636948E0
1.651881942E1,9.783205719E0,1.285826111E-1,5.852828979E-1,9.801540884E0
1.652886542E1,9.813442841E0,1.369651794E-1,5.198689270E-1,9.828157688E0
1.653891042E1,9.815837860E0,1.342707825E-1,4.938230896E-1,9.829168977E0
1.654895642E1,9.792785797E0,1.339714050E-1,5.399272156E-1,9.808573974E0
1.655900242E1,9.800120544E0,1.318757629E-1,5.689668274E-1,9.817508704E0
1.656904742E1,9.799072723E0,1.407073975E-1,5.285508728E-1,9.814325796E0
1.657909342E1,9.800868988E0,1.284329224E-1,5.099894714E-1,9.814969037E0
1.658913842E1,9.807754669E0,1.356179810E-1,5.132826233E-1,9.822112957E0
1.659918442E1,9.809101868E0,1.413061523E-1,4.986131287E-1,9.822782800E0
1.660922942E1,9.815388794E0,1.486408997E-1,4.674778748E-1,9.827638926E0
1.661927542E1,9.805958405E0,1.525328064E-1,4.556524658E-1,9.817724057E0
1.662932042E1,9.815837860E0,1.504371643E-1,4.315525818E-1,9.826471486E0
1.663936642E1,9.812395020E0,1.387614441E-1,4.016148376E-1,9.821590769E0
1.664941242E1,9.818083191E0,1.372645569E-1,4.176315308E-1,9.827920187E0
1.665945742E1,9.814041595E0,1.125659180E-1,4.436773682E-1,9.824710333E0
1.666950342E1,9.802964630E0,1.239422607E-1,4.797523499E-1,9.815479588E0
1.667954842E1,9.806257782E0,1.227447510E-1,5.152285767E-1,9.820550822E0
1.668959442E1,9.802515564E0,1.255888367E-1,4.867877197E-1,9.815398424E0
1.669963942E1,9.818083191E0,1.219963074E-1,4.082011414E-1,9.827322566E0
1.670968542E1,9.821975098E0,1.456471252E-1,3.535647583E-1,9.829415849E0
