"Time (s)","Gyroscope x (rad/s)","Gyroscope y (rad/s)","Gyroscope z (rad/s)","Absolute (rad/s)"
9.410833372E-4,-2.369584516E-3,-1.172477938E-2,-1.666050171E-3,1.207729711E-2
1.098608333E-2,4.128862638E-4,6.621144712E-4,-5.624361802E-4,9.618758218E-4
2.103208334E-2,-3.734864062E-3,-7.360732183E-3,3.338432871E-4,8.260813469E-3
3.107708333E-2,5.379116628E-4,8.644599468E-3,-2.310131676E-4,8.664399344E-3
4.112308333E-2,-3.745119087E-3,-8.181027137E-3,-7.399395108E-4,9.027880841E-3
5.116808334E-2,-9.136463050E-4,-5.334932357E-4,1.226538559E-3,1.619802902E-3
6.121408333E-2,1.996934414E-3,4.847272299E-3,-3.368664766E-4,5.253310844E-3
7.126008334E-2,3.444429021E-4,1.130031887E-3,3.973669372E-4,1.246400201E-3
8.130508333E-2,1.821792684E-4,2.113975585E-3,1.066747122E-3,2.374875045E-3
9.135108333E-2,-1.559261931E-3,-2.771327272E-3,1.542920480E-3,3.534424455E-3
1.013960833E-1,-1.998220338E-3,4.742066376E-4,8.129521739E-4,2.208766101E-3
1.114420833E-1,1.639998518E-4,1.447326038E-3,-4.038461484E-4,1.511535750E-3
1.214870833E-1,5.161722656E-4,1.584395301E-3,-9.359490359E-4,1.911215026E-3
1.315330833E-1,-5.136721302E-4,2.871695906E-4,-3.263514955E-4,6.729269869E-4
1.415780833E-1,4.237398971E-4,1.930598170E-3,7.478386397E-4,2.113297760E-3
1.516238333E-1,-5.560370628E-4,1.188108698E-3,5.118824774E-4,1.408120436E-3
1.616698333E-1,1.443599584E-3,1.887761056E-3,1.750783529E-3,2.951756177E-3
1.717148333E-1,-2.716790652E-3,-1.472077705E-2,1.888764650E-1,1.894687342E-1
1.817608333E-1,3.693237435E-3,8.417812176E-3,3.405328393E-1,3.406568863E-1
1.918058333E-1,2.174702939E-3,8.408757858E-3,3.916269243E-1,3.917232242E-1
2.018518333E-1,-9.349025786E-4,5.241623148E-3,3.482589424E-1,3.482996405E-1
2.118968333E-1,4.046806600E-3,1.667057909E-2,2.705169916E-1,2.710603763E-1
2.219428333E-1,-1.547476277E-4,1.430937089E-3,1.412004232E-1,1.412077585E-1
2.319888333E-1,-4.532718100E-3,-1.156155951E-2,-5.124346353E-5,1.241844667E-2
2.420338333E-1,3.809736110E-3,1.072768308E-2,-3.585747909E-4,1.138972561E-2
2.520798333E-1,-1.105926465E-3,-1.656015404E-3,-1.359345624E-4,1.995980603E-3
2.621248333E-1,7.289095083E-4,-8.846712299E-4,-1.788561349E-3,2.124359658E-3
2.721708333E-1,-9.078693110E-4,1.322556287E-3,-1.047936268E-3,1.916129495E-3
2.822158333E-1,1.590524102E-3,3.101455513E-3,2.016965067E-3,4.027026360E-3
2.922618333E-1,2.371056471E-4,1.708622091E-3,9.405151941E-4,1.964733408E-3
3.023068333E-1,-7.728796918E-4,1.457988285E-3,1.289252774E-3,2.094097794E-3
3.123528333E-1,-5.181476474E-3,-1.199177466E-2,2.352653071E-3,1.327348238E-2
3.223988333E-1,2.918040380E-3,5.052959546E-3,-1.101327594E-3,5.938036907E-3
3.324438333E-1,-5.893427879E-4,-5.192221608E-3,1.061497023E-4,5.226639256E-3
3.424898333E-1,1.619089628E-3,4.337490071E-3,6.904385518E-4,4.681023043E-3
3.525348333E-1,-8.744280785E-4,-4.197408911E-3,-2.604158130E-3,5.016423586E-3
3.625808333E-1,-4.771051463E-4,-3.265311942E-3,3.243936226E-4,3.315889416E-3
3.726258333E-1,-1.049152110E-3,-3.044003621E-3,-5.384704564E-4,3.264449207E-3
3.826718333E-1,-4.666366149E-4,-1.615842339E-3,-1.327963080E-3,2.142937735E-3
3.927178333E-1,-1.354800770E-3,-1.515973825E-3,2.448998857E-4,2.047837327E-3
4.027628333E-1,-6.646898109E-4,-2.856040373E-4,-4.559146473E-4,8.551259419E-4
4.128088333E-1,5.819357466E-4,3.176019527E-4,2.306483220E-4,7.019393578E-4
4.228538333E-1,5.605979823E-5,8.494406939E-5,3.369105980E-4,3.519473639E-4
4.328998333E-1,-6.777723320E-5,-1.242375001E-3,1.801915467E-3,2.189746274E-3
4.429448333E-1,-8.054070640E-4,-6.802021526E-4,-1.483625034E-3,1.820027128E-3
4.529908333E-1,-5.595975090E-4,-1.145456452E-3,-1.026892918E-3,1.636987758E-3
4.630358333E-1,9.497045539E-5,1.633882057E-3,-3.272790927E-4,1.669042111E-3
4.730818333E-1,3.439760767E-4,-3.072964028E-4,-3.912497777E-5,4.629053730E-4
4.831278333E-1,3.045937046E-4,4.297234118E-4,-1.690873178E-4,5.531998342E-4
4.931728333E-1,7.131226594E-4,1.097910106E-3,3.443701426E-4,1.353713900E-3
5.032188333E-1,3.257486969E-5,-1.446716487E-4,-1.093873521E-3,1.103879653E-3
5.132638333E-1,-8.513282519E-4,-5.582608283E-4,-1.926599070E-4,1.036114272E-3
5.233098333E-1,1.166714355E-5,3.224066459E-4,7.570257876E-4,8.229035245E-4
5.333548333E-1,4.239245318E-4,-9.729550220E-4,-1.581762335E-3,1.904816413E-3
5.434008333E-1,-1.791955438E-4,5.077514797E-4,8.069563191E-4,9.701036589E-4
5.534458333E-1,5.110957427E-4,-3.191595897E-4,-8.053213824E-4,1.005795323E-3
5.634918333E-1,5.522888387E-4,-3.050337546E-4,1.487596892E-4,6.482268105E-4
5.735378333E-1,-5.742283538E-4,1.148785464E-3,-1.553000184E-3,2.015255769E-3
5.835828333E-1,4.641381092E-4,-1.351655927E-3,-1.369974343E-4,1.435676226E-3
5.936288333E-1,-1.019508811E-3,4.542330280E-4,-3.686256241E-5,1.116729469E-3
6.036738333E-1,-1.266701147E-4,9.619304910E-5,-9.142397903E-4,9.279724214E-4
6.137198333E-1,-1.130681951E-3,-1.879665069E-4,6.399811246E-4,1.312763848E-3
6.237648333E-1,-7.731828373E-4,4.306025803E-4,2.253253479E-4,9.132369870E-4
6.338108333E-1,-1.741774380E-3,-9.941882454E-4,9.310632013E-4,2.211123457E-3
6.438568333E-1,-7.991283201E-5,-6.468608044E-4,9.357240051E-4,1.140348357E-3
6.539018333E-1,1.127830707E-3,-8.391416632E-4,3.005601466E-4,1.437531647E-3
6.639478333E-1,3.079278395E-5,-6.534270942E-4,-1.058318885E-3,1.244168005E-3
6.739928333E-1,-2.653507981E-4,1.080556773E-3,8.817203343E-5,1.116148867E-3
6.840388333E-1,7.944846293E-4,-5.763783120E-4,6.500445306E-5,9.836886518E-4
6.940838333E-1,5.812058225E-5,7.852958515E-4,-5.081079435E-4,9.371452709E-4
7.041298333E-1,-5.331828725E-4,-9.310203604E-4,1.197779085E-3,1.608029112E-3
7.141748333E-1,-2.980257850E-4,-5.501885898E-4,-5.540482234E-4,8.357609029E-4
7.242208333E-1,1.416648156E-3,9.035225958E-6,1.596800284E-4,1.425647693E-3
7.342668333E-1,1.476006582E-5,4.857410677E-4,-4.560428206E-4,6.664362675E-4
7.443118333E-1,6.359160179E-4,-1.050638035E-3,-5.950557534E-5,1.229540717E-3
7.543578333E-1,-6.788866594E-4,-7.760664448E-4,5.764572416E-4,1.181299782E-3
7.644028333E-1,1.651397906E-5,-3.930521198E-4,9.289281443E-4,1.008796400E-3
7.744488333E-1,8.428927977E-4,1.128411852E-3,2.495558001E-4,1.430405423E-3
7.844938333E-1,-4.718322307E-4,6.111059338E-5,5.964381853E-4,7.629539091E-4
7.945398333E-1,3.169961274E-4,1.248614397E-3,2.891861368E-5,1.288549861E-3
8.045858333E-1,1.181360218E-3,-1.240479294E-3,7.898523472E-5,1.714829295E-3
8.146308333E-1,8.697704179E-4,6.578215398E-4,-1.007850980E-3,1.484922004E-3
8.246768333E-1,-1.010668930E-4,5.691070110E-4,-7.467296673E-4,9.443000068E-4
8.347218333E-1,-7.603317499E-5,6.274301559E-4,4.215990193E-4,7.597337542E-4
8.447678333E-1,-6.623673253E-4,-7.352870889E-4,-7.491238648E-4,1.241194643E-3
8.548128333E-1,-3.501307219E-6,-2.940013073E-4,-4.077065969E-4,5.026665863E-4
8.648588333E-1,3.801949788E-4,-7.107341662E-5,3.062869655E-4,4.933673658E-4
8.749038333E-1,-1.175623620E-3,2.218740992E-4,7.446432719E-4,1.409188637E-3
8.849498333E-1,6.063674809E-4,4.677441902E-4,-1.073497813E-3,1.318659814E-3
8.949958333E-1,-9.076395072E-4,-1.644901931E-4,-4.170285538E-4,1.012313841E-3
9.050408333E-1,-5.521406420E-4,1.076952089E-3,-7.110419683E-4,1.403661558E-3
9.150868333E-1,6.757699884E-5,-1.728954259E-3,-1.166244037E-4,1.734200315E-3
9.251318333E-1,-4.759249277E-4,-3.307438456E-4,5.042918492E-4,7.682488512E-4
9.351778333E-1,-1.492719632E-3,-6.127725355E-4,9.477082640E-4,1.871323872E-3
9.452228333E-1,-2.706113737E-4,-3.290735185E-4,9.984415956E-4,1.085543880E-3
9.552688333E-1,-5.747445393E-4,6.640190259E-4,-4.255507374E-4,9.758821560E-4
9.653138333E-1,3.293822519E-4,-1.758709550E-4,4.140106030E-4,5.575195423E-4
9.753598333E-1,4.436317831E-4,-1.155352220E-5,1.483536093E-3,1.548490226E-3
9.854058333E-1,3.973788116E-4,9.229872376E-5,8.032277692E-4,9.008905725E-4
9.954508333E-1,-3.094242420E-4,1.777280588E-3,-2.335407771E-4,1.819068702E-3
1.005496833E0,4.166357685E-4,-1.906761434E-3,-3.809448099E-4,1.988578255E-3
1.015541833E0,8.400783408E-4,-8.870377205E-4,6.718026707E-4,1.394233253E-3
1.025587833E0,-6.579544861E-4,7.789554074E-4,6.877848646E-4,1.229928312E-3
1.035632833E0,-8.792630397E-4,4.945294932E-4,5.688203964E-5,1.010395209E-3
1.045678833E0,-3.623925149E-4,1.184404828E-4,3.363804426E-4,5.084371003E-4
1.055723833E0,-4.068273120E-5,5.464102142E-4,-3.925267374E-4,6.740151677E-4
1.065769833E0,-8.340219501E-4,-2.933559008E-4,1.029545674E-4,8.900842324E-4
1.075815833E0,2.402970567E-4,8.659181185E-4,5.102285650E-5,9.000889930E-4
1.085860833E0,-4.137544893E-4,3.671161830E-4,6.650113501E-4,8.649896907E-4
1.095906833E0,-1.170781907E-4,-6.779078394E-4,4.197342787E-4,8.058803920E-4
1.105951833E0,6.283260882E-5,1.643379219E-4,7.319923025E-4,7.528397042E-4
1.115997833E0,-3.771216143E-4,1.965621486E-4,1.104103867E-4,4.393721017E-4
1.126042833E0,8.075293154E-4,1.604137942E-3,1.266355510E-3,2.197502767E-3
1.136088833E0,-2.279076725E-4,-3.122724593E-4,9.430475766E-4,1.019212798E-3
1.146133750E0,-1.186151057E-4,2.423804253E-4,1.026405836E-3,1.061285426E-3
1.156179750E0,6.514298730E-5,-4.889238626E-4,-5.744204391E-4,7.571320843E-4
1.166225750E0,4.923020024E-4,-1.102097798E-3,4.483641824E-4,1.287637860E-3
1.176270750E0,8.006960852E-4,7.615825161E-4,2.430345630E-4,1.131453909E-3
1.186316750E0,1.133472309E-3,8.395011537E-4,5.278614117E-4,1.506040947E-3
1.196361750E0,5.710127298E-4,-1.013526693E-3,8.050965844E-4,1.414734040E-3
1.206407750E0,-1.811750233E-3,-1.020492055E-4,2.040206455E-4,1.826055139E-3
1.216452750E0,-5.515425000E-4,6.383094005E-4,-1.033816487E-3,1.334321756E-3
1.226498750E0,-8.769151755E-4,-3.758422099E-4,-6.761533441E-4,1.169367751E-3
1.236543750E0,2.642907202E-5,-7.659955882E-4,1.014687587E-3,1.271628340E-3
1.246589750E0,-6.034576800E-4,-2.771674190E-3,1.323480508E-3,3.130166072E-3
1.256635750E0,4.610079341E-4,7.689986378E-4,3.644762328E-4,9.678482032E-4
1.266680750E0,2.010178287E-4,5.129678175E-5,8.068268653E-4,8.330720964E-4
1.276726750E0,2.813845174E-3,-7.335371338E-4,4.459684715E-4,2.941885326E-3
1.286771750E0,1.136233448E-3,-8.512367494E-4,-1.464448636E-3,2.039666703E-3
1.296817750E0,2.571677323E-3,-1.652049366E-3,-7.168994052E-4,3.139543935E-3
1.306862750E0,3.054861212E-3,-1.794539858E-3,6.315908395E-4,3.598813320E-3
1.316908750E0,5.024535116E-3,-1.402256545E-3,-5.886695581E-4,5.249648407E-3
1.326954750E0,-2.492106054E-3,5.812263116E-4,2.182692988E-4,2.568279209E-3
1.336999750E0,-2.040167805E-3,2.231320832E-3,-5.923199933E-5,3.024001613E-3
1.347045750E0,5.951286294E-4,-1.024024095E-3,-1.247001812E-3,1.719830501E-3
1.357090750E0,-3.606798127E-4,2.020178363E-5,-1.017170958E-3,1.079414099E-3
1.367136750E0,5.030647153E-4,-1.778056379E-3,-1.196535071E-3,2.201421080E-3
1.377181750E0,1.769397873E-3,1.480587292E-3,-3.421929432E-4,2.332381524E-3
1.387227750E0,1.168794115E-3,-1.262901817E-3,2.700665500E-4,1.741819917E-3
1.397272750E0,2.183724893E-3,-2.136160620E-4,-1.714855898E-4,2.200839281E-3
1.407318750E0,1.237896155E-3,2.328762785E-4,7.432454731E-5,1.261801248E-3
1.417364750E0,6.999375764E-4,-8.481005207E-4,1.564096776E-3,1.911958637E-3
1.427409750E0,1.374152023E-3,2.173259854E-4,1.174687641E-4,1.396181678E-3
1.437455750E0,2.425748389E-4,-1.107756980E-4,-1.699073357E-3,1.719873274E-3
1.447500750E0,7.558311336E-5,-9.774821810E-4,8.925807197E-4,1.325852391E-3
1.457546750E0,-9.990024846E-4,-5.694571882E-6,-1.976176398E-3,2.214342238E-3
1.467591750E0,3.247288987E-6,3.042141907E-4,1.217216719E-3,1.254660655E-3
1.477637750E0,-2.383012325E-4,-1.519853249E-4,2.981598955E-4,4.108361470E-4
1.487682750E0,1.434991136E-3,2.810880542E-4,-1.378828310E-3,2.009820282E-3
1.497728750E0,-4.441353958E-4,3.316877410E-4,1.324013923E-3,1.435369596E-3
1.507774750E0,4.292835947E-4,-1.512388233E-3,-1.441679895E-3,2.133083095E-3
1.517819750E0,-4.080142826E-4,-1.539552119E-3,7.405143697E-4,1.756433293E-3
1.527865750E0,-8.544793818E-4,-2.372168470E-3,3.161409404E-4,2.541114590E-3
1.537910750E0,-2.075976226E-4,-1.765766647E-3,4.109493457E-4,1.824803548E-3
1.547956750E0,-1.567510655E-3,-1.072728075E-3,4.820547765E-4,1.959645882E-3
1.558001750E0,-6.556441076E-4,5.142493173E-4,5.877822405E-4,1.019710507E-3
1.568047750E0,5.982916337E-4,-1.073149499E-3,2.662063343E-4,1.257166869E-3
1.578092750E0,-1.608669991E-3,-2.440949436E-3,5.000318633E-4,2.965819474E-3
1.588138750E0,-7.340549491E-4,6.255381741E-4,-1.310118707E-3,1.626820734E-3
1.598184750E0,6.792845670E-4,-2.253418788E-4,-8.821486263E-4,1.135954526E-3
1.608229750E0,7.642642595E-5,-1.285105478E-3,6.572913844E-4,1.445464995E-3
1.618275750E0,-1.496702665E-3,5.632871762E-5,4.780606832E-4,1.572206669E-3
1.628320750E0,-5.614496768E-4,-1.236155629E-3,-1.729489304E-4,1.368655476E-3
1.638366750E0,7.232591743E-4,-1.295543276E-3,-5.495199002E-4,1.582247874E-3
1.648411750E0,-9.136667941E-4,-2.170280088E-3,-1.156853978E-3,2.623587962E-3
1.658457750E0,-6.233823951E-4,-7.132650353E-4,-7.756752893E-7,9.472872969E-4
1.668502750E0,1.030267566E-3,-1.229361631E-3,4.554213956E-4,1.667390153E-3
1.678548750E0,3.451347351E-3,8.271731436E-3,2.029882045E-3,9.189872720E-3
1.688594750E0,2.966173459E-3,6.877123378E-4,1.094715786E-3,3.235666222E-3
1.698639750E0,-1.711402554E-3,-1.914462075E-3,8.036323125E-4,2.690704114E-3
1.708685750E0,1.672680723E-3,1.875562128E-3,8.723405190E-4,2.660182715E-3
1.718730750E0,2.201925963E-4,-3.859945573E-4,2.410848625E-3,2.451462353E-3
1.728776750E0,-9.940944146E-4,-2.552443650E-3,9.326622821E-4,2.893622509E-3
1.738821750E0,4.104569089E-4,-2.470951062E-3,1.970971934E-4,2.512552751E-3
1.748867750E0,-1.412911341E-3,-1.711314544E-3,-2.431231551E-4,2.232492955E-3
1.758912750E0,-1.087206649E-3,-1.567237079E-3,-2.119852696E-3,2.851670705E-3
1.768958750E0,5.749425618E-4,-1.211588271E-3,-4.039308988E-5,1.341691727E-3
1.779004750E0,7.602985715E-4,-2.388971858E-3,-1.073166961E-3,2.727073116E-3
1.789049750E0,8.850265294E-5,9.676301852E-4,-6.916013081E-5,9.741273113E-4
1.799095750E0,-1.532297349E-3,-3.908481449E-4,-1.076367684E-3,1.912920497E-3
1.809140750E0,3.922029864E-4,-5.715852603E-5,1.141780405E-3,1.208616057E-3
1.819186750E0,-5.103424191E-4,1.067494508E-3,4.743923200E-4,1.274771345E-3
1.829231750E0,9.263959946E-4,1.187399961E-3,1.027532388E-3,1.823170594E-3
1.839277750E0,8.004345000E-5,-1.259245910E-3,8.315236773E-4,1.511138260E-3
1.849322750E0,1.983663533E-4,-1.350450329E-4,2.018619329E-3,2.032833088E-3
1.859368750E0,-1.002985518E-3,6.599086337E-4,-2.961768769E-5,1.200973173E-3
1.869414750E0,-4.973432515E-4,-1.273007132E-3,2.606610069E-4,1.391345259E-3
1.879459750E0,-1.287618652E-4,1.045274548E-3,1.664679381E-3,1.969856833E-3
1.889505750E0,5.893156631E-4,9.028022178E-4,5.359202623E-5,1.079452130E-3
1.899550750E0,-4.815415014E-4,4.993332550E-4,6.147199310E-4,9.268745927E-4
1.909596750E0,-1.605502795E-3,3.404449672E-5,5.660940660E-4,1.702721570E-3
1.919641750E0,1.143668778E-4,2.125691157E-3,-5.196767161E-4,2.191279664E-3
1.929687750E0,1.181694097E-3,1.249537338E-3,6.053511752E-4,1.823237379E-3
1.939732750E0,1.421112218E-3,-5.235956050E-4,1.017342205E-3,1.824471829E-3
1.949778750E0,2.621558961E-4,2.814792097E-4,1.069363789E-3,1.136439691E-3
1.959824750E0,7.383291377E-4,4.535196349E-4,-1.314964262E-3,1.574782837E-3
1.969869750E0,6.186489481E-4,1.692660153E-4,-1.781540923E-4,6.656698773E-4
1.979915750E0,-3.944174387E-4,8.936454542E-4,-1.464194618E-3,1.760123062E-3
1.989960750E0,-8.088054601E-4,5.439724773E-4,-2.375425538E-4,1.003244134E-3
2.000006750E0,-1.515077893E-4,1.754662953E-3,1.928093960E-3,2.611387181E-3
2.010051750E0,1.257153461E-3,2.410002053E-4,-5.161421141E-4,1.380187887E-3
2.020097750E0,-3.596516326E-4,3.757560626E-4,-7.584898267E-4,9.197003493E-4
2.030142750E0,-1.121614361E-3,6.300839595E-4,5.139179993E-4,1.385328943E-3
2.040188750E0,6.549804239E-4,1.821582206E-3,-6.125991931E-4,2.030378994E-3
2.050234750E0,1.023169723E-3,-7.814005949E-4,9.752588812E-5,1.291113655E-3
2.060279750E0,7.941379445E-4,-9.563658386E-5,-1.247636857E-3,1.482025357E-3
2.070325750E0,-2.860440873E-5,1.770615578E-3,-6.225837860E-4,1.877101038E-3
2.080370750E0,-1.989489887E-3,3.452915698E-4,-1.043096883E-3,2.272740061E-3
2.090416750E0,1.656613778E-3,1.327500679E-3,1.813452225E-3,2.791995028E-3
2.100461750E0,6.613904843E-4,9.868824854E-4,-4.398482852E-4,1.266823163E-3
2.110507750E0,-6.673042662E-5,4.542302340E-4,-1.174439676E-4,4.738893762E-4
2.120552750E0,-4.574162886E-4,1.456643920E-3,2.103365958E-3,2.599074744E-3
2.130598750E0,-3.079418093E-4,4.595248029E-4,-1.170693198E-3,1.294802598E-3
2.140644750E0,1.323510543E-3,-8.349400014E-5,-4.252744839E-4,1.392662843E-3
2.150689833E0,8.009342710E-4,1.153329853E-3,1.818833407E-4,1.415890888E-3
2.160735833E0,7.221046835E-4,2.212735359E-3,-1.327596256E-3,2.679579213E-3
2.170780833E0,4.289206117E-4,1.699492335E-3,8.564835880E-4,1.950848847E-3
2.180826833E0,-7.021240890E-4,5.452781916E-4,-8.228060324E-5,8.927914875E-4
2.190871833E0,-8.519499097E-4,5.037849769E-4,-1.723181107E-3,1.987201822E-3
2.200917833E0,-4.767533392E-5,8.614473045E-4,-1.033688663E-3,1.346431078E-3
2.210962833E0,3.430652432E-4,8.741384372E-4,-9.413948283E-4,1.329675145E-3
2.221008833E0,-3.776676022E-5,7.154140621E-4,1.763577806E-3,1.903536258E-3
2.231054833E0,1.110248268E-3,-3.172163852E-4,-1.210662886E-3,1.673015862E-3
2.241099833E0,7.587110158E-4,2.162153833E-4,-6.873516832E-4,1.046347855E-3
2.251145833E0,-1.382597489E-3,-8.129817434E-4,-3.240784863E-4,1.636319650E-3
2.261190833E0,-1.383684576E-4,1.886333339E-4,9.779408574E-4,1.005533035E-3
2.271236833E0,-3.951678518E-4,-1.025504898E-3,-3.464937909E-4,1.152334966E-3
2.281281833E0,7.235910743E-6,-1.460399944E-3,-1.747199567E-4,1.470832220E-3
2.291327833E0,-1.307564089E-3,-2.519140486E-3,9.845513850E-4,3.004186090E-3
2.301372833E0,-8.476362564E-4,-1.208331902E-3,2.548452467E-4,1.497831535E-3
2.311418833E0,3.356020898E-5,-1.105698757E-4,-8.391095325E-4,8.470282124E-4
2.321464833E0,-1.137165353E-3,-1.772915013E-3,1.491894946E-4,2.111546871E-3
2.331509833E0,2.696104348E-4,-2.035033423E-3,-4.737870768E-5,2.053362015E-3
2.341555833E0,-4.140231758E-4,-2.431312110E-3,-8.354079910E-4,2.603958579E-3
2.351600833E0,-1.273507020E-3,-2.123302780E-3,6.952999393E-4,2.571706988E-3
2.361646833E0,-7.573864423E-4,-1.280944794E-3,1.161086722E-3,1.887478786E-3
2.371691833E0,2.165676560E-4,-1.784330234E-3,8.321814239E-4,1.980722559E-3
2.381737833E0,-4.508204293E-4,-3.703031689E-5,-3.619799390E-4,5.793442673E-4
2.391782833E0,1.150153461E-3,-1.546483487E-3,-2.605859190E-4,1.944831401E-3
2.401828833E0,-1.872268040E-3,-1.711333171E-3,1.109249424E-4,2.538966951E-3
2.411874833E0,-8.859252557E-5,-2.105434891E-3,-1.067873091E-4,2.110001954E-3
2.421919833E0,-4.433256108E-4,-1.558688004E-3,2.255751751E-4,1.636132650E-3
2.431965833E0,-2.468910534E-4,-1.127280295E-3,-1.792598399E-3,2.131929895E-3
2.442010833E0,-1.408828190E-3,5.190852098E-4,-1.216823002E-3,1.932590112E-3
2.452056833E0,8.836893830E-4,-2.399040386E-4,-2.156435512E-4,9.407247284E-4
2.462101833E0,2.378728241E-4,-5.315206945E-4,-1.329111168E-3,1.451080365E-3
2.472147833E0,2.864983398E-4,-3.361129202E-4,-7.172877667E-4,8.423508379E-4
2.482192833E0,1.301961718E-3,1.992821693E-3,2.699461766E-4,2.395686448E-3
2.492238833E0,5.209664814E-4,7.824320346E-5,1.343931071E-4,5.436815069E-4
2.502284833E0,2.436045557E-3,6.096188445E-3,-1.483211061E-3,6.730360062E-3
2.512329833E0,3.878804855E-4,8.278763853E-4,-1.457508071E-3,1.720511656E-3
2.522375833E0,-2.403592225E-4,9.626322426E-4,-1.645793556E-3,1.921736147E-3
2.532420833E0,-7.402570918E-5,-3.401837312E-4,-3.821955761E-4,5.169895888E-4
2.542466833E0,4.370349925E-4,-7.697516121E-4,-2.506066579E-3,2.657797364E-3
2.552511833E0,-5.951202475E-4,-1.413011923E-4,-2.275116276E-5,6.120880258E-4
2.562557833E0,-4.121609963E-4,9.966082871E-6,-7.082488155E-4,8.195074096E-4
2.572602833E0,-1.319418661E-4,2.197279129E-3,-1.519845100E-3,2.674952963E-3
2.582648833E0,5.381094525E-4,1.168499701E-3,1.903382130E-3,2.297349966E-3
2.592694833E0,-1.095335465E-3,-5.881902762E-4,-1.756575657E-4,1.255620628E-3
2.602739833E0,-1.993885962E-3,1.288805623E-3,-2.001586836E-4,2.382575216E-3
2.612785833E0,4.503957462E-4,-2.637314610E-4,4.593040794E-4,6.952487677E-4
2.622830833E0,4.026875831E-5,3.434694372E-4,-2.709347755E-4,4.393159225E-4
2.632876833E0,2.932290081E-4,7.709581405E-5,-1.592415618E-3,1.621022676E-3
2.642921833E0,1.238519326E-4,-1.894868910E-4,-6.754891947E-4,7.124115631E-4
2.652967833E0,-5.445983261E-4,9.854268283E-4,-5.147621268E-4,1.237995726E-3
2.663012833E0,-8.663081098E-4,6.567924283E-4,-1.831961679E-3,2.130246378E-3
2.673058833E0,1.486092806E-4,1.396673266E-3,5.872803740E-4,1.522392580E-3
2.683104833E0,2.668006346E-6,1.045935322E-3,7.848870009E-4,1.307683226E-3
2.693149833E0,-9.454134852E-4,2.303015906E-3,-1.601604745E-4,2.494662362E-3
2.703195833E0,-7.347576320E-4,7.687690668E-4,-1.235278673E-3,1.629965661E-3
2.713240833E0,-1.139025437E-3,4.284987226E-4,7.311520167E-4,1.419708904E-3
2.723286833E0,7.406335790E-4,-1.045827288E-3,1.212880015E-4,1.287246517E-3
2.733331833E0,2.421974204E-5,2.963207662E-4,2.106376924E-4,3.643635957E-4
2.743377833E0,-2.143995371E-4,-6.027659401E-5,-6.655422039E-4,7.018168240E-4
2.753422833E0,-1.446261071E-3,-7.157172076E-4,8.472169284E-4,1.822552806E-3
2.763468833E0,4.499095958E-4,-2.616485581E-4,7.356866263E-5,5.256338654E-4
2.773513833E0,-7.534050383E-5,-4.885680974E-4,-9.582804050E-4,1.078274692E-3
2.783559833E0,-5.073053762E-4,-4.653986543E-4,1.328576123E-3,1.496351953E-3
2.793605833E0,1.348927617E-5,-5.337796174E-4,-3.355902154E-4,6.306531798E-4
2.803650833E0,2.243353985E-3,-2.432283945E-4,-7.939202478E-4,2.392092497E-3
2.813696833E0,1.386096701E-4,-1.839850564E-3,-1.248172252E-3,2.227598866E-3
2.823741833E0,-1.056084177E-3,-1.331985462E-3,-1.562762773E-4,1.707021188E-3
2.833787833E0,-4.122080281E-4,-3.420435824E-4,-1.435446087E-3,1.532127521E-3
2.843832833E0,5.899395328E-4,3.730151802E-4,6.258208305E-5,7.007749240E-4
2.853878833E0,3.697504289E-4,2.735045739E-3,-1.460889238E-3,3.122721239E-3
2.863923833E0,1.282019075E-4,8.652405813E-4,1.130625606E-5,8.747598665E-4
2.873969833E0,-2.855411731E-5,8.605630137E-4,1.018854091E-3,1.333959406E-3
2.884015833E0,-3.185723908E-4,3.367396537E-3,-2.883339766E-5,3.382555125E-3
2.894060833E0,1.105116098E-3,2.499560360E-3,2.273594961E-3,3.555041157E-3
2.904106833E0,1.792744268E-3,4.277486820E-3,1.149208518E-3,4.778232489E-3
2.914151833E0,9.413270745E-4,5.017790012E-3,-2.373744501E-4,5.110837495E-3
2.924197833E0,1.716306899E-3,4.339482635E-3,2.793835476E-3,5.438964569E-3
2.934242833E0,2.192350803E-3,7.649612147E-3,2.477214672E-3,8.334240252E-3
2.944288833E0,-7.959175855E-5,1.340849791E-3,3.143989295E-2,3.146857292E-2
2.954333833E0,6.613112055E-3,2.682651393E-2,5.678467155E-1,5.685185022E-1
2.964379833E0,8.597038686E-5,9.058170021E-3,8.546507955E-1,8.546988008E-1
2.974425833E0,5.042297766E-3,1.981796511E-2,8.179373741E-1,8.181929629E-1
2.984470833E0,8.337160572E-3,2.883915603E-2,6.762721539E-1,6.769381296E-1
2.994516833E0,1.187458402E-3,4.144717474E-3,6.278456450E-1,6.278604484E-1
3.004561833E0,4.582722671E-3,1.822671294E-2,7.113676667E-1,7.116158877E-1
3.014607833E0,3.368549980E-3,9.917180985E-3,8.414931893E-1,8.415583671E-1
3.024652833E0,-4.571398254E-3,2.578962594E-4,9.138798118E-1,9.138912816E-1
3.034698833E0,9.782310575E-3,2.968588658E-2,9.487266541E-1,9.492413864E-1
3.044743833E0,3.666095203E-3,1.774613559E-2,1.001676202E0,1.001840096E0
3.054789833E0,5.912488326E-3,2.858433127E-2,1.087377906E0,1.087769613E0
3.064835833E0,5.306086503E-3,2.689988166E-2,1.180394650E0,1.180713042E0
3.074880833E0,2.942469204E-3,1.954672858E-2,1.249553442E0,1.249709781E0
3.084926833E0,1.319057960E-2,4.306643829E-2,1.297723174E0,1.298504581E0
3.094971833E0,3.376392182E-3,3.052270412E-2,1.367260218E0,1.367605037E0
3.105017833E0,1.540109701E-2,5.063516274E-2,1.433403492E0,1.434380244E0
3.115062833E0,-3.927609418E-3,-1.841023099E-3,1.546134472E0,1.546140557E0
3.125108833E0,8.221730590E-3,4.297970980E-2,1.654181838E0,1.654760528E0
3.135153833E0,3.899998032E-3,4.580369592E-2,1.808452725E0,1.809036884E0
3.145199833E0,4.723713733E-3,3.946644068E-2,1.985950589E0,1.986348322E0
3.155245583E0,9.700150229E-3,7.703471929E-2,2.151911497E0,2.153311759E0
3.165290583E0,1.710320637E-2,7.573110610E-2,2.291387558E0,2.292702480E0
3.175336583E0,6.099962164E-3,4.557758197E-2,2.440804482E0,2.441237605E0
3.185381583E0,1.575818285E-2,7.385715842E-2,2.604673624E0,2.605768195E0
3.195427583E0,3.280317876E-3,6.138898432E-2,2.775439262E0,2.776120038E0
3.205472583E0,2.898434922E-2,1.059703082E-1,2.940706730E0,2.942758208E0
3.215518583E0,2.696774434E-3,3.052910417E-2,3.105168343E0,3.105319587E0
3.225563583E0,3.423472494E-2,1.015090048E-1,3.268891573E0,3.270646451E0
3.235609583E0,2.408931218E-2,8.859647810E-2,3.501260757E0,3.502464350E0
3.245655583E0,-1.297549810E-2,3.766619414E-2,3.731398106E0,3.731610769E0
3.255700583E0,2.893897891E-2,1.583697647E-1,3.896420240E0,3.899744753E0
3.265746583E0,3.066630289E-2,1.177930385E-1,4.072353840E0,4.074172483E0
3.275791583E0,-1.771147922E-2,2.735079452E-2,4.227219582E0,4.227345166E0
3.285837583E0,2.743362822E-2,1.425048113E-1,4.283189774E0,4.285647543E0
3.295882583E0,2.702981979E-2,1.167543083E-1,4.291477680E0,4.293150691E0
3.305928583E0,8.274240419E-3,9.238371998E-2,4.268494606E0,4.269502245E0
3.315973583E0,2.767001837E-2,1.270495951E-1,4.256730080E0,4.258715558E0
3.326019583E0,1.873244904E-2,1.021096185E-1,4.308375359E0,4.309625913E0
3.336065583E0,1.770818233E-2,9.018139541E-2,4.414913654E0,4.415870111E0
3.346110583E0,2.115803957E-2,1.275833547E-1,4.582172394E0,4.583997057E0
3.356156583E0,2.039054595E-2,1.298468262E-1,4.721133709E0,4.722962997E0
3.366201583E0,1.149425656E-2,9.538231790E-2,4.837258339E0,4.838212288E0
3.376247583E0,2.399009094E-2,1.360274106E-1,4.882064342E0,4.884017939E0
3.386292583E0,2.946901321E-2,1.182992831E-1,4.843338966E0,4.844873114E0
3.396338583E0,1.691671461E-2,1.028667912E-1,4.769243717E0,4.770382939E0
3.406383583E0,2.027975395E-2,1.011405289E-1,4.652712345E0,4.653855696E0
3.416429583E0,2.398230135E-2,1.141101494E-1,4.533189297E0,4.534688686E0
3.426475583E0,2.237242088E-2,9.722065181E-2,4.441079617E0,4.442199966E0
3.436520583E0,3.411248326E-2,1.087665707E-1,4.357411861E0,4.358902609E0
3.446566583E0,2.745910734E-2,9.702309221E-2,4.324344158E0,4.325519608E0
3.456611583E0,2.055070549E-2,8.233967423E-2,4.332132816E0,4.332963985E0
3.466657583E0,2.652950212E-2,9.691914916E-2,4.325409412E0,4.326576443E0
3.476702583E0,2.336247079E-2,7.683066279E-2,4.332229137E0,4.332973350E0
3.486748583E0,2.830609679E-2,1.120288596E-1,4.351919174E0,4.353452905E0
3.496793583E0,2.065867558E-2,9.323922545E-2,4.358214378E0,4.359260591E0
3.506839583E0,1.518055517E-2,8.959788829E-2,4.387526989E0,4.388467991E0
3.516885583E0,3.616017103E-2,1.199740246E-1,4.432074070E0,4.433845045E0
3.526930583E0,2.619675361E-2,9.496907145E-2,4.495489120E0,4.496568450E0
3.536976583E0,2.616581134E-2,1.044035330E-1,4.510367870E0,4.511651923E0
3.547021583E0,3.520111740E-2,1.192930043E-1,4.513468266E0,4.515181693E0
3.557067583E0,3.143600747E-2,1.413117349E-1,4.540485859E0,4.542793091E0
3.567112583E0,2.360125259E-2,1.107109413E-1,4.559675217E0,4.561080137E0
3.577158583E0,2.881560661E-2,9.323977679E-2,4.616056919E0,4.617088420E0
3.587203583E0,4.313382879E-2,1.280283779E-1,4.666767120E0,4.668722218E0
3.597249583E0,1.592508890E-2,9.199606627E-2,4.704574585E0,4.705500920E0
3.607294583E0,2.013687603E-2,1.397604048E-1,4.713265896E0,4.715380565E0
3.617340583E0,1.704420149E-2,1.167140678E-1,4.704073429E0,4.705551987E0
3.627386583E0,1.319673378E-2,1.174168810E-1,4.621479511E0,4.622989698E0
3.637431583E0,5.454424024E-2,1.860500574E-1,4.492488861E0,4.496670531E0
3.647477583E0,2.678914694E-3,3.487651795E-2,4.344092846E0,4.344233673E0
3.657522583E0,5.487672985E-2,1.845668256E-1,4.174780369E0,4.179218527E0
3.667568583E0,1.443716418E-2,9.732006490E-2,4.136297226E0,4.137467144E0
3.677613583E0,7.915444439E-4,4.124798253E-2,4.159947395E0,4.160151963E0
3.687659583E0,1.568074524E-2,1.384000927E-1,4.217549324E0,4.219848667E0
3.697705583E0,3.235315159E-2,1.427772194E-1,4.244111061E0,4.246635228E0
3.707750583E0,3.207249101E-3,9.187062830E-2,4.274292469E0,4.275280881E0
3.717796583E0,1.178091019E-2,1.306860894E-1,4.289995193E0,4.292001445E0
3.727841583E0,1.637592912E-2,1.311963499E-1,4.290097713E0,4.292134556E0
3.737887583E0,5.653932458E-4,8.681514859E-2,4.303010464E0,4.303886179E0
3.747932583E0,3.744408488E-3,1.128464788E-1,4.332708359E0,4.334179285E0
3.757978583E0,2.626221813E-2,1.223817393E-1,4.398289204E0,4.400069876E0
3.768023583E0,7.108497433E-3,8.298639208E-2,4.486660004E0,4.487433037E0
3.778069583E0,2.513406985E-2,1.163665950E-1,4.541504383E0,4.543064491E0
3.788114583E0,1.918802969E-2,1.242245138E-1,4.566001415E0,4.567731257E0
3.798160583E0,1.564700529E-2,1.461354345E-1,4.537638187E0,4.540017700E0
3.808206583E0,1.173455548E-2,8.966042846E-2,4.507848263E0,4.508755111E0
3.818251583E0,1.892625354E-2,1.168884262E-1,4.477360249E0,4.478925753E0
3.828297583E0,2.420117706E-2,1.105967090E-1,4.412431240E0,4.413883412E0
3.838342583E0,-7.214434445E-3,8.058785647E-2,4.307422161E0,4.308181998E0
3.848388583E0,2.211762220E-2,1.114259288E-1,4.163458347E0,4.165007844E0
3.858433583E0,2.429246344E-2,8.188313246E-2,4.098681450E0,4.099571270E0
3.868479583E0,8.998727426E-3,8.730586618E-2,4.096222878E0,4.097163062E0
3.878524583E0,3.654357418E-2,1.262411773E-1,4.155262470E0,4.157340311E0
3.888570583E0,5.853478797E-5,7.556468248E-2,4.244717121E0,4.245389672E0
3.898616583E0,-7.042742334E-3,7.903239876E-2,4.349386215E0,4.350109903E0
3.908661583E0,2.412663028E-2,1.319185197E-1,4.466749668E0,4.468762378E0
3.918707583E0,-1.931867003E-2,6.883809716E-2,4.622921467E0,4.623474320E0
3.928752583E0,2.184714377E-2,1.374246180E-1,4.756958485E0,4.758993260E0
3.938798583E0,3.001642600E-2,1.222983226E-1,4.912325382E0,4.913939207E0
3.948843583E0,2.558199689E-2,1.260275543E-1,5.061360836E0,5.062994262E0
3.958889583E0,8.212606423E-3,9.485909343E-2,5.208692551E0,5.209562725E0
3.968934583E0,2.188314497E-2,1.072656959E-1,5.371330738E0,5.372446249E0
3.978980583E0,7.463311777E-3,1.668311357E-1,5.527522087E0,5.530044191E0
3.989026583E0,2.673367970E-2,1.203126311E-1,5.668524742E0,5.669864423E0
3.999071583E0,1.585401967E-2,1.474246532E-1,5.776891708E0,5.778794268E0
4.009117583E0,2.527388558E-2,1.321524829E-1,5.854327202E0,5.855873123E0
4.019162583E0,3.099954687E-2,1.651599258E-1,5.938375473E0,5.940752649E0
4.029208583E0,2.706632391E-2,1.397030354E-1,6.018270016E0,6.019952118E0
4.039253583E0,1.010574959E-2,1.410267502E-1,6.104823589E0,6.106460655E0
4.049299583E0,2.347561717E-2,2.050872147E-1,6.182608128E0,6.186053276E0
4.059344583E0,2.632177435E-2,1.468523443E-1,6.256235600E0,6.258014248E0
4.069390583E0,6.388013717E-3,1.213222295E-1,6.345193863E0,6.346356833E0
4.079436583E0,1.823767461E-2,1.474620700E-1,6.443498611E0,6.445211558E0
4.089481583E0,3.085253574E-2,1.709463596E-1,6.501890182E0,6.504210212E0
4.099527583E0,4.622247070E-3,1.518246680E-1,6.566106319E0,6.567862993E0
4.109572583E0,2.734939754E-2,1.880540401E-1,6.585387707E0,6.588128988E0
4.119618583E0,2.594503574E-2,1.418009698E-1,6.586934566E0,6.588511793E0
4.129663583E0,5.052974075E-2,1.722302586E-1,6.574243069E0,6.576692820E0
4.139709583E0,4.059015960E-2,1.436441839E-1,6.536579609E0,6.538283735E0
4.149754833E0,2.007613890E-3,8.734256774E-2,6.473157883E0,6.473747425E0
4.159800833E0,6.441701949E-2,2.245875299E-1,6.426711559E0,6.430957205E0
4.169846833E0,-9.873452596E-3,7.017585635E-2,6.422013283E0,6.422404280E0
4.179891833E0,4.094161093E-2,2.230085284E-1,6.386324883E0,6.390348545E0
4.189937833E0,1.389614493E-2,1.124418005E-1,6.359375477E0,6.360384636E0
4.199982833E0,3.476798534E-2,1.734876186E-1,6.307705402E0,6.310186543E0
4.210028833E0,4.830376804E-2,1.431640685E-1,6.277796268E0,6.279614255E0
4.220073833E0,1.377583575E-2,9.534855187E-2,6.194357872E0,6.195106986E0
4.230119833E0,4.157870635E-2,1.655510664E-1,6.050968170E0,6.053375235E0
4.240164833E0,2.488171682E-2,1.252048612E-1,5.881329536E0,5.882714720E0
4.250210833E0,3.597697988E-2,1.272208691E-1,5.679237843E0,5.680776528E0
4.260256833E0,1.830737293E-2,1.244195178E-1,5.476023197E0,5.477467064E0
4.270301833E0,1.307745650E-2,9.661824256E-2,5.251568794E0,5.252473789E0
4.280347833E0,3.613188863E-2,1.356631070E-1,5.020018101E0,5.021980857E0
4.290392833E0,4.064701125E-2,1.458694041E-1,4.794916153E0,4.797306638E0
4.300438833E0,1.707076281E-2,7.804996520E-2,4.576029778E0,4.576727186E0
4.310483833E0,3.136368468E-2,1.472945660E-1,4.351861000E0,4.354465930E0
4.320529833E0,1.394848572E-3,5.036408454E-2,4.146246910E0,4.146553017E0
4.330574833E0,3.496639058E-2,1.403003782E-1,3.926824808E0,3.929485961E0
4.340620833E0,1.992582530E-2,9.594797343E-2,3.722266436E0,3.723556159E0
4.350666833E0,1.239253953E-2,7.764220238E-2,3.523195505E0,3.524072708E0
4.360711833E0,-1.974930754E-3,9.617746621E-2,3.333693743E0,3.335081405E0
4.370757833E0,1.655348018E-2,8.466435224E-2,3.241337776E0,3.242485567E0
4.380802833E0,1.754006743E-2,1.155261099E-1,3.133724928E0,3.135902718E0
4.390848833E0,1.686495543E-2,9.368765354E-2,3.015173435E0,3.016675761E0
4.400893833E0,5.272997543E-3,4.927471653E-2,2.891968489E0,2.892393048E0
4.410939833E0,2.540042624E-4,7.000955194E-2,2.772533655E0,2.773417435E0
4.420984833E0,7.427945733E-3,6.324388832E-2,2.679259062E0,2.680015687E0
4.431030833E0,2.790316939E-3,5.751223117E-2,2.673608780E0,2.674228739E0
4.441076833E0,2.757435106E-2,9.312842786E-2,2.772175789E0,2.773876683E0
4.451121833E0,-1.386070531E-2,1.862170547E-2,3.029588938E0,3.029677874E0
4.461167833E0,2.542914823E-2,1.376356632E-1,3.422667265E0,3.425527904E0
4.471212833E0,1.580261998E-2,7.885144651E-2,3.928728819E0,3.929551807E0
4.481258833E0,-3.218078287E-3,3.476197645E-2,4.440833092E0,4.440970311E0
4.491303833E0,2.444524132E-2,1.332355440E-1,4.863447666E0,4.865333748E0
4.501349833E0,3.056170791E-2,1.294656545E-1,5.186212540E0,5.187918261E0
4.511394833E0,2.391632088E-2,1.368737668E-1,5.434123516E0,5.435899632E0
4.521440833E0,3.517813236E-2,1.688574553E-1,5.581503391E0,5.584167838E0
4.531486833E0,2.306927368E-2,1.580309123E-1,5.669071674E0,5.671320799E0
4.541531833E0,1.989497989E-2,1.167656928E-1,5.669299603E0,5.670536837E0
4.551577833E0,3.498430829E-3,8.233608305E-2,5.604311466E0,5.604917348E0
4.561622833E0,9.627429768E-3,9.589050710E-2,5.512564659E0,5.513407005E0
4.571668833E0,2.149552293E-2,1.382904947E-1,5.440050125E0,5.441850024E0
4.581713833E0,3.404367715E-2,1.293660253E-1,5.429979324E0,5.431626828E0
4.591759833E0,-2.215262502E-3,6.817163527E-2,5.453196526E0,5.453623073E0
4.601804833E0,2.641458251E-2,1.256181300E-1,5.450322628E0,5.451834040E0
4.611850833E0,2.039717138E-2,1.169519424E-1,5.446415424E0,5.447709131E0
4.621895833E0,4.419912025E-2,1.827057898E-1,5.448276520E0,5.451518321E0
4.631941833E0,8.561496623E-3,9.034816176E-2,5.482355118E0,5.483106212E0
4.641987833E0,2.717996016E-2,1.605120003E-1,5.518222809E0,5.520623680E0
4.652032833E0,3.159441426E-2,1.329237819E-1,5.598351002E0,5.600017935E0
4.662078833E0,1.624032855E-2,1.563912034E-1,5.681051731E0,5.683227140E0
4.672123833E0,5.079271272E-2,1.490960121E-1,5.744604588E0,5.746763558E0
4.682169833E0,-3.826979781E-3,5.417756736E-2,5.773580074E0,5.773835530E0
4.692214833E0,5.793625489E-2,1.866397411E-1,5.725739002E0,5.729073060E0
4.702260833E0,1.322552841E-2,7.925549895E-2,5.700584412E0,5.701150672E0
4.712305833E0,3.652046248E-2,1.547697037E-1,5.696821690E0,5.699040688E0
4.722351833E0,2.620320953E-2,1.488455981E-1,5.781192303E0,5.783167476E0
4.732397833E0,2.273870446E-2,1.004133523E-1,5.891096592E0,5.891996177E0
4.742442833E0,4.986301064E-2,1.762328744E-1,5.948284149E0,5.951103147E0
4.752488833E0,2.223644406E-2,1.021216139E-1,5.987376213E0,5.988288336E0
4.762533833E0,3.499294072E-2,1.530407518E-1,5.984595299E0,5.986654063E0
4.772579833E0,3.961698711E-2,1.396075040E-1,5.921105385E0,5.922883482E0
4.782624833E0,4.547175393E-2,1.636525244E-1,5.776327133E0,5.778823840E0
4.792670833E0,4.829017818E-2,1.385524869E-1,5.604668140E0,5.606588419E0
4.802716833E0,2.818776667E-2,1.309615523E-1,5.416253090E0,5.417909469E0
4.812761833E0,3.162990138E-2,1.178987399E-1,5.206233978E0,5.207664813E0
4.822807833E0,4.848959297E-2,1.456731260E-1,5.023827553E0,5.026173015E0
4.832852833E0,1.410738751E-2,7.341730595E-2,4.839045525E0,4.839622992E0
4.842898833E0,1.202486455E-2,1.253876239E-1,4.646807194E0,4.648514144E0
4.852943833E0,2.341014519E-2,1.202503890E-1,4.446536541E0,4.448223848E0
4.862989833E0,2.072709613E-3,7.006481290E-2,4.278392792E0,4.278966961E0
4.873034833E0,2.789285593E-2,1.212979034E-1,4.102012634E0,4.103900443E0
4.883080833E0,1.772046089E-2,7.871652395E-2,3.938313961E0,3.939140409E0
4.893125833E0,2.971906587E-2,1.091695055E-1,3.804852486E0,3.806534335E0
4.903171833E0,2.023232169E-2,1.027290598E-1,3.693680286E0,3.695163956E0
4.913217833E0,1.786983199E-2,8.183922619E-2,3.624168873E0,3.625136826E0
4.923262833E0,1.055910625E-2,8.349846303E-2,3.599837303E0,3.600821031E0
4.933308833E0,2.175823040E-2,1.051566228E-1,3.604586363E0,3.606185545E0
4.943353833E0,9.151374921E-3,6.937272102E-2,3.642038107E0,3.642710240E0
4.953399833E0,1.577865146E-2,9.576252103E-2,3.712080002E0,3.713348538E0
4.963444833E0,-1.997723244E-2,7.642510533E-2,3.787284851E0,3.788108556E0
4.973490833E0,1.971105859E-2,1.410155594E-1,3.882807493E0,3.885417345E0
4.983535833E0,1.290388312E-2,1.210423335E-1,3.983465195E0,3.985324669E0
4.993581833E0,1.674842276E-2,1.095113829E-1,4.062252045E0,4.063762410E0
5.003627833E0,1.381758135E-2,9.743435681E-2,4.156314373E0,4.157479230E0
5.013672833E0,1.473104581E-2,1.030768007E-1,4.251493454E0,4.252768324E0
5.023718833E0,1.744154096E-2,1.068059653E-1,4.345704079E0,4.347051375E0
5.033763833E0,1.066752430E-2,9.313222766E-2,4.426838875E0,4.427831279E0
5.043809833E0,-2.086078748E-4,8.384466916E-2,4.495518208E0,4.496300026E0
5.053854833E0,3.006807156E-2,1.548203081E-1,4.555370808E0,4.558100110E0
5.063900833E0,1.398275141E-2,8.752433211E-2,4.640554905E0,4.641401281E0
5.073945833E0,3.038756782E-3,9.359794110E-2,4.720796108E0,4.721724865E0
5.083991833E0,-1.593746245E-3,7.871537656E-2,4.815054417E0,4.815698048E0
5.094037833E0,3.439834341E-2,1.571076512E-1,4.914793015E0,4.917423760E0
5.104082833E0,1.953452453E-2,1.020629555E-1,5.052353382E0,5.053421924E0
5.114128833E0,1.006805152E-2,8.449381590E-2,5.186028481E0,5.186726518E0
5.124173833E0,2.378926054E-2,1.178856492E-1,5.327711105E0,5.329068265E0
5.134219833E0,1.579231955E-2,1.196436062E-1,5.448868275E0,5.450204534E0
5.144264833E0,2.235845476E-2,1.349066645E-1,5.542767048E0,5.544453648E0
5.154310708E0,3.260390088E-2,1.358582228E-1,5.618656158E0,5.620393002E0
5.164355708E0,-8.578553796E-3,9.090062976E-2,5.711308956E0,5.712038735E0
5.174401708E0,3.801611066E-2,1.749875396E-1,5.759434700E0,5.762217796E0
5.184447708E0,3.011970967E-2,1.634494364E-1,5.836620331E0,5.838986196E0
5.194492708E0,2.862807177E-2,1.301860213E-1,5.925697327E0,5.927196367E0
5.204538708E0,2.310394309E-2,1.208566874E-1,5.984116554E0,5.985381447E0
5.214583708E0,1.735977083E-2,1.488960534E-1,5.995700359E0,5.997574026E0
5.224629708E0,2.590087615E-2,1.510762870E-1,5.987737656E0,5.989699252E0
5.234674708E0,2.116044983E-2,1.765600741E-1,6.007603168E0,6.010234359E0
5.244720708E0,1.738340221E-2,1.547213942E-1,6.047584534E0,6.049588381E0
5.254765708E0,2.750554495E-2,1.325692087E-1,6.117196560E0,6.118694706E0
5.264811708E0,5.022090394E-3,1.139973179E-1,6.229551792E0,6.230596772E0
5.274857708E0,3.437411785E-2,1.902071387E-1,6.330611229E0,6.333561310E0
5.284902708E0,3.087143414E-2,1.845893562E-1,6.400917530E0,6.403652981E0
5.294948708E0,1.196361380E-3,1.182337701E-1,6.446731091E0,6.447815321E0
5.304993708E0,4.895415157E-2,1.923736334E-1,6.483983994E0,6.487021855E0
5.315039708E0,7.647823077E-4,1.099876687E-1,6.548126698E0,6.549050398E0
5.325084708E0,2.782845497E-2,1.958843023E-1,6.569138050E0,6.572116843E0
5.335130708E0,7.244084962E-3,1.207003370E-1,6.597700596E0,6.598808544E0
5.345175708E0,4.423730448E-2,1.895678639E-1,6.596764088E0,6.599635546E0
5.355221708E0,2.367610484E-2,1.158710122E-1,6.602650166E0,6.603709250E0
5.365267708E0,3.262133151E-2,1.529371738E-1,6.564485550E0,6.566347879E0
5.375312708E0,5.852403119E-2,1.786760986E-1,6.509305477E0,6.512020271E0
5.385358708E0,3.785331175E-2,1.364975125E-1,6.455555916E0,6.457109773E0
5.395403708E0,8.933778852E-3,1.121982858E-1,6.405613899E0,6.406602664E0
5.405449708E0,5.269747227E-2,1.822880507E-1,6.385683537E0,6.388502186E0
5.415494708E0,-2.498138929E-3,8.703022450E-2,6.440937519E0,6.441525955E0
5.425540708E0,4.149037600E-2,2.043293566E-1,6.527426243E0,6.530755339E0
5.435585708E0,2.682434767E-2,1.468767226E-1,6.625456333E0,6.627138443E0
5.445631708E0,5.011879280E-2,1.559625864E-1,6.730606556E0,6.732599857E0
5.455677708E0,4.519084468E-3,1.559383571E-1,6.805650234E0,6.807438013E0
5.465722708E0,2.464575693E-2,1.542848945E-1,6.846615791E0,6.848398283E0
5.475768708E0,3.626965359E-2,1.623577327E-1,6.848092079E0,6.850112455E0
5.485813708E0,8.085094392E-3,1.125865579E-1,6.838548660E0,6.839480162E0
5.495859708E0,2.817092091E-2,1.820079833E-1,6.806198597E0,6.808690024E0
5.505904708E0,5.278000608E-2,1.962749511E-1,6.773253441E0,6.776302219E0
5.515950708E0,3.244730830E-2,1.316040754E-1,6.772131920E0,6.773488259E0
5.525995708E0,5.391921848E-3,1.497476846E-1,6.785051823E0,6.786706247E0
5.536041708E0,3.342222422E-2,2.016817182E-1,6.816490650E0,6.819555509E0
5.546087708E0,4.348852858E-2,2.028282136E-1,6.868168831E0,6.871300723E0
5.556132708E0,2.937404066E-2,1.565256864E-1,6.912881851E0,6.914716091E0
5.566178708E0,4.323178902E-3,1.492017955E-1,6.951866150E0,6.953468403E0
5.576223708E0,4.708715528E-2,1.963525414E-1,6.962419510E0,6.965346865E0
5.586269708E0,-4.261917900E-3,1.291623563E-1,6.926437378E0,6.927642877E0
5.596314708E0,1.994035579E-2,1.758214831E-1,6.847028732E0,6.849314803E0
5.606360708E0,2.953675948E-2,1.412697732E-1,6.753670216E0,6.755212132E0
5.616405708E0,2.049692534E-2,1.249461845E-1,6.648835659E0,6.650041150E0
5.626451708E0,2.662581019E-2,1.303699464E-1,6.521461964E0,6.522819283E0
5.636497708E0,5.340494215E-3,1.352581829E-1,6.362326145E0,6.363765966E0
5.646542708E0,-7.130322047E-5,7.904854417E-2,6.174825191E0,6.175331151E0
5.656588708E0,4.865016416E-2,1.751116961E-1,6.000590324E0,6.003342001E0
5.666633708E0,2.283567563E-2,1.296933293E-1,5.944209576E0,5.945668113E0
5.676679708E0,2.709406987E-2,1.405071020E-1,5.958091259E0,5.959809375E0
5.686724708E0,2.993036807E-2,1.148450002E-1,6.031922817E0,6.033090259E0
5.696770708E0,3.643833473E-2,1.886057854E-1,6.159704208E0,6.162698746E0
5.706815708E0,2.688742988E-2,1.151910946E-1,6.353744507E0,6.354845488E0
5.716861708E0,3.193811327E-2,1.761844009E-1,6.591737270E0,6.594168729E0
5.726907708E0,2.013106830E-2,1.115759537E-1,6.854592323E0,6.855529912E0
5.736952708E0,4.081290960E-2,1.811369210E-1,7.095834732E0,7.098263648E0
5.746998708E0,4.048138484E-2,1.997118741E-1,7.293731213E0,7.296577182E0
5.757043708E0,2.351917699E-2,1.302715391E-1,7.409060955E0,7.410243455E0
5.767089708E0,2.460458502E-2,1.736495495E-1,7.457952976E0,7.460014889E0
5.777134708E0,4.874693975E-2,2.105473727E-1,7.459353924E0,7.462483998E0
5.787180708E0,3.507603332E-2,1.659903675E-1,7.418912888E0,7.420852482E0
5.797225708E0,4.210597649E-2,1.548575610E-1,7.368362904E0,7.370110288E0
5.807271708E0,3.312518448E-2,1.565639377E-1,7.402671814E0,7.404401362E0
5.817317708E0,5.545632169E-2,1.947707087E-1,7.491127968E0,7.493864775E0
5.827362708E0,3.755175695E-2,1.768356115E-1,7.594268799E0,7.596420180E0
5.837408708E0,4.963851348E-2,1.921596974E-1,7.645681858E0,7.648257344E0
5.847453708E0,5.663067102E-2,2.123516649E-1,7.638743401E0,7.641904279E0
5.857499708E0,5.160661787E-2,1.794520319E-1,7.593801975E0,7.596097334E0
5.867544708E0,2.351533622E-2,1.763135642E-1,7.536997318E0,7.539095968E0
5.877590708E0,7.878364623E-2,2.467544377E-1,7.436362267E0,7.440872151E0
5.887635708E0,2.506148070E-2,1.450792253E-1,7.371822357E0,7.373292407E0
5.897681708E0,1.957483590E-2,2.074198425E-1,7.271223545E0,7.274207724E0
5.907727708E0,4.812650010E-2,1.876109987E-1,7.167639256E0,7.170255682E0
5.917772708E0,4.690464213E-2,1.614017636E-1,7.059954643E0,7.061955122E0
5.927818708E0,5.688712001E-2,1.843509972E-1,6.962802410E0,6.965474775E0
5.937863708E0,4.348289967E-2,2.151104957E-1,6.831335068E0,6.834859333E0
5.947909708E0,2.409465425E-2,1.454881877E-1,6.668586254E0,6.670216638E0
5.957954708E0,2.258916944E-2,1.621862203E-1,6.426961899E0,6.429047666E0
5.968000708E0,-1.110659447E-2,1.636963785E-1,6.170487404E0,6.172668358E0
5.978045708E0,9.675915353E-3,1.952617615E-1,5.921349525E0,5.924576017E0
5.988091708E0,2.153304219E-2,1.366320252E-1,5.684212685E0,5.685895341E0
5.998137708E0,2.462603711E-2,1.434326768E-1,5.415056705E0,5.417011953E0
6.008182708E0,9.354406036E-3,1.154090241E-1,5.162944794E0,5.164242993E0
6.018228708E0,2.427290194E-2,1.365414709E-1,4.913723946E0,4.915680600E0
6.028273708E0,5.121246446E-3,8.048648387E-2,4.669883251E0,4.670579609E0
6.038319708E0,2.109914832E-2,1.224198192E-1,4.391460896E0,4.393217566E0
6.048364708E0,2.777667250E-4,7.486946136E-2,4.112116814E0,4.112798342E0
6.058410708E0,6.769488566E-3,1.016803011E-1,3.805557251E0,3.806921420E0
6.068455708E0,1.435098052E-2,9.424616396E-2,3.492959499E0,3.494260201E0
6.078501708E0,8.437430486E-3,5.178153142E-2,3.233368635E0,3.233794250E0
6.088547708E0,1.535061630E-3,6.928740442E-2,3.265925407E0,3.266660660E0
6.098592708E0,1.538589597E-2,8.923394233E-2,3.498168707E0,3.499340470E0
6.108638708E0,1.227666065E-2,9.171182662E-2,3.901091337E0,3.902188539E0
6.118683708E0,2.773311362E-2,1.186936498E-1,4.335909843E0,4.337622791E0
6.128729708E0,1.952325366E-2,9.741068631E-2,4.749803543E0,4.750842420E0
6.138774708E0,1.672773249E-2,9.961525351E-2,5.131359577E0,5.132353663E0
6.148820708E0,-2.306510694E-3,1.372962147E-1,5.394707680E0,5.396454996E0
6.158865958E0,9.277706966E-3,1.191672757E-1,5.541879654E0,5.543168500E0
6.168911958E0,2.321476303E-2,1.621856093E-1,5.590597153E0,5.592997374E0
6.178957958E0,1.374030020E-2,1.237221062E-1,5.586712360E0,5.588099046E0
6.189002958E0,4.299288988E-2,1.634818614E-1,5.589853287E0,5.592408647E0
6.199048958E0,3.886099532E-2,1.816323698E-1,5.660827160E0,5.663873642E0
6.209093958E0,1.465619542E-2,1.143542901E-1,5.777217388E0,5.778367629E0
6.219139958E0,1.893935539E-2,1.954960227E-1,5.927839279E0,5.931092304E0
6.229184958E0,2.582455799E-2,1.069160402E-1,6.104839802E0,6.105830570E0
6.239230958E0,1.427789032E-2,1.597683430E-1,6.188281536E0,6.190360099E0
6.249275958E0,4.770106450E-2,1.931543946E-1,6.180803776E0,6.184005120E0
6.259321958E0,9.339557961E-3,1.044921800E-1,6.090208054E0,6.091111555E0
6.269367958E0,1.318982523E-2,1.525369734E-1,5.986596584E0,5.988554096E0
6.279412958E0,2.017103694E-2,1.477701813E-1,5.925377846E0,5.927254467E0
6.289458958E0,2.771515399E-2,2.054649144E-1,5.916849613E0,5.920480834E0
6.299503958E0,1.739194058E-2,1.071604490E-1,5.961915016E0,5.962903362E0
6.309549958E0,2.588156611E-2,1.619264930E-1,6.029279232E0,6.031508775E0
6.319594958E0,4.084924236E-3,1.328343898E-1,6.118521214E0,6.119964338E0
6.329640958E0,2.265939675E-2,1.238684729E-1,6.129079342E0,6.130372780E0
6.339685958E0,2.776893601E-2,1.237542257E-1,6.141393185E0,6.142702701E0
6.349731958E0,1.549692173E-2,1.279290915E-1,6.119918823E0,6.121275391E0
6.359777958E0,2.051538415E-2,1.473552585E-1,6.072947025E0,6.074769133E0
6.369822958E0,3.160761669E-2,1.536743045E-1,6.020538330E0,6.022582222E0
6.379868958E0,4.627018422E-2,1.396969706E-1,5.981397629E0,5.983207649E0
6.389913958E0,2.156167477E-2,1.010184065E-1,5.963684559E0,5.964579041E0
6.399959958E0,3.431262448E-2,1.937446296E-1,5.928477287E0,5.931741505E0
6.410004958E0,3.121840954E-2,1.307920516E-1,5.973813057E0,5.975326233E0
6.420050958E0,1.890235581E-2,1.147267967E-1,6.042509556E0,6.043628154E0
6.430095958E0,4.444618523E-2,1.728474647E-1,6.140540600E0,6.143133611E0
6.440141958E0,1.000645105E-2,9.137710929E-2,6.234972000E0,6.235649585E0
6.450187958E0,4.551231116E-2,1.712484956E-1,6.299673557E0,6.302165052E0
6.460232958E0,2.566537075E-2,1.161657870E-1,6.404425144E0,6.405530004E0
6.470278958E0,2.854612842E-2,1.619435996E-1,6.466248989E0,6.468339555E0
6.480323958E0,3.114031442E-2,1.671290398E-1,6.508359909E0,6.510579893E0
6.490369958E0,3.059444763E-2,1.358889937E-1,6.552945614E0,6.554425837E0
6.500414958E0,1.629593596E-2,1.348857880E-1,6.595582008E0,6.596981261E0
6.510460958E0,2.615304664E-2,1.455048323E-1,6.621344566E0,6.622994753E0
6.520505958E0,4.797152430E-2,1.814521700E-1,6.668832779E0,6.671473360E0
6.530551958E0,3.468770906E-2,1.399328113E-1,6.698155403E0,6.699706727E0
6.540597958E0,1.007717196E-2,1.352693588E-1,6.727746487E0,6.729113771E0
6.550642958E0,2.458432503E-2,1.659830958E-1,6.773217201E0,6.775295273E0
6.560688958E0,4.876928777E-2,1.701757163E-1,6.845440865E0,6.847729467E0
6.570733958E0,5.855374038E-2,2.078384012E-1,6.946599007E0,6.949954180E0
6.580779958E0,1.024373434E-2,1.184280887E-1,7.085177898E0,7.086174991E0
6.590824958E0,4.967055842E-2,1.956830621E-1,7.186825275E0,7.189660393E0
6.600870958E0,1.593840541E-3,9.897169471E-2,7.303677559E0,7.304348282E0
6.610915958E0,2.410079725E-2,2.478286028E-1,7.408062935E0,7.412246374E0
6.620961958E0,3.173767775E-2,1.923823953E-1,7.549754143E0,7.552271571E0
6.631007958E0,5.959019810E-2,2.073464543E-1,7.703662395E0,7.706682675E0
6.641052958E0,1.117233001E-2,1.571780890E-1,7.851223946E0,7.852805054E0
6.651098958E0,6.533298641E-3,1.252605915E-1,7.950880527E0,7.951869847E0
6.661143958E0,5.198173970E-2,2.291225344E-1,7.966458797E0,7.969922522E0
6.671189958E0,3.537217528E-2,1.229704618E-1,7.919414520E0,7.920448173E0
6.681234958E0,6.185837835E-2,2.338660955E-1,7.823381901E0,7.827121066E0
6.691280958E0,1.777898520E-2,1.528978348E-1,7.718766689E0,7.720301357E0
6.701325958E0,4.236741737E-2,2.257062644E-1,7.632071972E0,7.635526236E0
6.711371958E0,3.025032952E-2,1.421421617E-1,7.618088245E0,7.619474259E0
6.721417958E0,4.746314138E-2,2.150280923E-1,7.605756760E0,7.608943798E0
6.731462958E0,2.174934372E-2,1.529405564E-1,7.539961815E0,7.541544140E0
6.741508958E0,2.292246558E-2,1.965000182E-1,7.317527294E0,7.320201049E0
6.751553958E0,4.045979306E-2,1.949675232E-1,7.038627148E0,7.041443137E0
6.761599958E0,5.559070036E-3,7.434683293E-2,6.732793808E0,6.733206578E0
6.771644958E0,4.391383007E-2,1.862275749E-1,6.418416977E0,6.421268226E0
6.781690958E0,1.521853544E-2,1.232217029E-1,6.106837273E0,6.108099268E0
6.791735958E0,3.865776956E-2,1.336266994E-1,5.772877693E0,5.774553435E0
6.801781958E0,2.629590966E-2,1.108644083E-1,5.463378429E0,5.464566429E0
6.811827958E0,4.734281823E-2,1.550786048E-1,5.171408176E0,5.173949482E0
6.821872958E0,2.809961513E-2,9.008228779E-2,4.900216579E0,4.901125068E0
6.831918958E0,1.940209419E-2,9.226299077E-2,4.617256641E0,4.618219115E0
6.841963958E0,4.110605642E-2,1.287781298E-1,4.321710587E0,4.323824223E0
6.852009958E0,1.352784596E-2,6.898240745E-2,4.059443951E0,4.060052557E0
6.862054958E0,3.411700949E-2,1.519028544E-1,3.791321754E0,3.794516978E0
6.872100958E0,-4.035032820E-3,1.642576233E-2,3.522186756E0,3.522227368E0
6.882145958E0,3.707778454E-2,1.242419705E-1,3.262879372E0,3.265454428E0
6.892191958E0,3.855827032E-3,4.119024053E-2,3.024947405E0,3.025230290E0
6.902237958E0,1.978312805E-2,9.043262154E-2,2.768728971E0,2.770276078E0
6.912282958E0,1.085929293E-2,5.502320081E-2,2.515710115E0,2.516335205E0
6.922328958E0,1.030215994E-2,5.750819296E-2,2.251057625E0,2.251815658E0
6.932373958E0,2.023639716E-2,6.534085423E-2,1.994252086E0,1.995424847E0
6.942419958E0,-1.820967300E-3,1.907668263E-2,1.727749586E0,1.727855859E0
6.952464958E0,2.121143043E-2,6.001404673E-2,1.452243328E0,1.453637608E0
6.962510958E0,-2.714912407E-4,7.538056467E-3,1.178426504E0,1.178450645E0
6.972555958E0,1.181069389E-2,3.550500423E-2,9.010410309E-1,9.018176297E-1
6.982601958E0,-4.021000583E-3,-8.797477931E-3,6.421684623E-1,6.422413082E-1
6.992647958E0,5.499312654E-3,1.965117827E-2,3.815514147E-1,3.820967068E-1
7.002692958E0,-3.372712526E-4,2.605882473E-3,1.157948524E-1,1.158246615E-1
7.012738958E0,-8.335259743E-3,-2.326786332E-2,1.302228076E-3,2.475006700E-2
7.022783958E0,1.703435555E-4,-1.092786901E-3,2.287076786E-4,1.129383610E-3
7.032829958E0,6.662242813E-4,5.091872066E-3,-1.923250966E-5,5.135307763E-3
7.042874958E0,1.383856870E-4,-6.341906264E-4,-7.643849822E-4,1.002812420E-3
7.052920958E0,-2.327519469E-4,-6.174161099E-4,1.378123648E-3,1.527940088E-3
7.062965958E0,-1.504602842E-4,1.959991641E-3,-2.301592613E-4,1.979186403E-3
7.073011958E0,-1.604375429E-4,-2.721957862E-4,-1.153872348E-3,1.196349509E-3
7.083057958E0,1.182594686E-3,-1.914833207E-3,-2.633112017E-4,2.265932300E-3
7.093102958E0,1.039532945E-4,-3.384081647E-4,1.656825189E-3,1.694224330E-3
7.103148958E0,-7.735581603E-4,-6.172414869E-4,-1.988653094E-4,1.009418987E-3
7.113193958E0,-1.787315123E-4,-2.539111301E-4,-1.971596153E-3,1.995897595E-3
7.123239958E0,7.264768938E-4,1.063021831E-3,9.501678869E-5,1.291050844E-3
7.133284958E0,5.365934921E-4,-1.392146107E-3,4.867676180E-4,1.569377607E-3
7.143330958E0,-8.112438954E-4,1.252084039E-4,4.735847469E-4,9.476688846E-4
7.153375458E0,-5.057139788E-4,-2.015815116E-4,-3.469345393E-4,6.455581374E-4
7.163421458E0,-5.038497038E-4,7.539610378E-4,-7.822166663E-5,9.101870136E-4
7.173467458E0,1.869744156E-4,-1.701473724E-3,-1.502213767E-3,2.277414865E-3
7.183512458E0,-3.797463141E-4,-6.894725375E-4,6.767844316E-4,1.038083238E-3
7.193558458E0,-1.284631435E-4,-1.233135350E-3,2.300392371E-4,1.260969318E-3
7.203603458E0,-5.042350385E-4,4.204213619E-4,-8.938146057E-4,1.109013816E-3
7.213649458E0,5.772792501E-4,4.657749087E-4,8.537506219E-4,1.130967605E-3
7.223694458E0,-5.987726618E-4,1.079899725E-3,-6.421470316E-4,1.391784799E-3
7.233740458E0,-3.475758713E-4,1.120073721E-4,-5.305500235E-5,3.690114781E-4
7.243785458E0,-3.401190042E-4,1.627878286E-3,1.549635315E-3,2.273112021E-3
7.253831458E0,5.845304113E-4,4.223221913E-5,-4.354849225E-4,7.301414108E-4
7.263877458E0,4.431165289E-4,-3.729541786E-4,3.496150021E-4,6.765188299E-4
7.273922458E0,5.543061998E-4,-4.639946856E-4,-3.513286356E-4,8.037277160E-4
7.283968458E0,-1.019621966E-3,-4.307054915E-4,-5.651672836E-5,1.108300643E-3
7.294013458E0,-3.161295317E-4,3.652824089E-4,8.743905928E-4,9.989634767E-4
7.304059458E0,5.667083897E-4,-6.698882207E-4,-6.982058985E-4,1.121338532E-3
7.314104458E0,6.819084520E-4,9.514121339E-4,-1.353480620E-4,1.178347692E-3
7.324150458E0,8.203928592E-4,-9.973766282E-5,3.323028795E-4,8.907397198E-4
7.334195458E0,1.008227700E-3,-4.630843177E-4,-2.028581221E-4,1.127883681E-3
7.344241458E0,-1.306858147E-3,-4.724049941E-4,3.968856763E-4,1.445186124E-3
7.354287458E0,1.763925189E-3,-6.279302761E-4,1.197430305E-3,2.222513856E-3
7.364332458E0,5.465942668E-4,-5.413768813E-4,-2.835536143E-4,8.199127223E-4
7.374378458E0,-2.376525663E-4,5.769869313E-5,4.414943978E-4,5.047030659E-4
7.384423458E0,8.526454912E-4,4.028445110E-4,-1.412053825E-4,9.535339500E-4
7.394469458E0,7.616144139E-4,-6.076041609E-5,-5.389484577E-4,9.349940020E-4
7.404514458E0,-2.774642780E-5,2.228664234E-4,-1.627648715E-3,1.643070189E-3
7.414560458E0,8.206550265E-4,-3.858399577E-4,-5.172309466E-5,9.083074501E-4
7.424605458E0,-7.587950677E-6,-4.329779185E-4,-8.047325537E-6,4.331191688E-4
7.434651458E0,9.825220332E-6,-4.748734646E-4,-1.125243958E-3,1.221382539E-3
7.444697458E0,-9.992467239E-4,-4.671509378E-4,-3.531936090E-4,1.158218347E-3
7.454742458E0,7.138295332E-4,-4.698536359E-4,-5.151131190E-4,9.978259202E-4
7.464788458E0,6.776105147E-4,-1.003284473E-3,1.900373958E-3,2.253254740E-3
7.474833458E0,6.822242867E-4,-1.925788820E-5,-7.373547414E-4,1.004735218E-3
7.484879458E0,1.270782901E-3,-6.192680448E-4,3.963529598E-4,1.468154543E-3
7.494924458E0,-8.027052972E-4,-1.328682993E-3,1.815152122E-3,2.388411923E-3
7.504970458E0,2.018390223E-4,-1.736702397E-4,-7.824952481E-4,8.265586225E-4
7.515015458E0,5.573710660E-4,3.485754132E-4,6.638676859E-4,9.342845542E-4
7.525061458E0,2.857286017E-4,-1.411796547E-4,6.369696930E-4,7.122520050E-4
7.535107458E0,-6.103143096E-5,8.823452517E-4,4.335772246E-6,8.844641190E-4
7.545152458E0,-3.878013231E-4,1.321327873E-4,-2.968678018E-4,5.059440991E-4
7.555198458E0,7.977678906E-4,6.939987652E-4,-1.095549087E-3,1.522595053E-3
7.565243458E0,8.776626782E-4,4.087742418E-4,2.036061836E-3,2.254536750E-3
7.575289458E0,6.691047456E-4,3.977329470E-4,8.605427574E-4,1.160356193E-3
7.585334458E0,-1.005488448E-4,1.250743400E-3,4.309748765E-4,1.326728483E-3
7.595380458E0,9.238661733E-4,-2.053896897E-4,-7.498718332E-4,1.207485568E-3
7.605425458E0,-9.086548816E-4,-1.740169711E-3,7.918321062E-4,2.116800038E-3
7.615471458E0,9.927488863E-4,1.013515983E-3,-1.486235764E-3,2.054668281E-3
7.625517458E0,4.718345590E-4,-5.359109491E-4,1.353630796E-4,7.267403661E-4
7.635562458E0,-1.235481352E-3,2.485937439E-4,1.624331577E-3,2.055885719E-3
7.645608458E0,5.467060255E-4,-5.157333799E-4,-6.942163454E-4,1.023134757E-3
7.655653458E0,2.327645198E-4,6.179446355E-4,1.701179426E-4,6.818907600E-4
7.665699458E0,-6.942818873E-4,2.192892134E-5,9.368523024E-5,7.009173553E-4
7.675744458E0,-7.240930572E-4,-3.442168236E-6,1.079333015E-4,7.321012236E-4
7.685790458E0,-7.275552489E-4,-2.436591312E-4,4.608021118E-4,8.950111723E-4
7.695835458E0,-3.681799863E-4,-6.561507471E-4,2.476163208E-4,7.920884720E-4
7.705881458E0,-2.869535238E-4,1.723584719E-4,2.788538346E-3,2.808557615E-3
7.715927458E0,-5.930166226E-4,-3.685103729E-4,-1.979585271E-3,2.099101345E-3
7.725972458E0,-3.389508929E-4,-1.988671720E-4,1.067869831E-3,1.137884808E-3
7.736018458E0,1.637560548E-3,1.665307209E-4,1.267739339E-3,2.077618844E-3
7.746063458E0,8.973130025E-5,-3.732917830E-4,-9.618592449E-4,1.035650360E-3
7.756109458E0,-7.150340825E-4,-3.687478602E-4,-1.671750797E-4,8.217032499E-4
7.766154458E0,-1.895080786E-3,5.031712353E-4,4.261771683E-4,2.006524223E-3
7.776200458E0,5.423557013E-6,-8.544926532E-4,-7.635882357E-4,1.145972994E-3
7.786245458E0,7.915887982E-4,-1.760233659E-3,-7.313638926E-4,2.063959424E-3
7.796291458E0,-1.368578058E-3,3.667371348E-4,-6.449422799E-4,1.556744221E-3
7.806337458E0,5.177389830E-4,-2.585728653E-4,-1.035216264E-4,5.879033155E-4
7.816382458E0,-5.284114741E-5,5.601225421E-4,4.642631393E-4,7.294310876E-4
7.826428458E0,-2.523118164E-4,-5.187238567E-4,-6.633193698E-4,8.790496451E-4
7.836473458E0,4.832532723E-4,6.788996980E-4,-9.943502955E-4,1.297370816E-3
7.846519458E0,-3.375331871E-4,-8.944957517E-4,-4.859528271E-4,1.072474453E-3
7.856564458E0,-2.001866000E-3,-6.644427776E-5,2.595994156E-4,2.019721312E-3
7.866610458E0,3.417157568E-4,-3.537992015E-4,-9.670526488E-4,1.084958229E-3
7.876655458E0,-2.804561518E-5,-6.462470628E-4,-2.409407170E-4,6.902711437E-4
7.886701458E0,-2.283153590E-4,-1.359175425E-3,1.809040550E-4,1.390040293E-3
7.896747458E0,-1.145676244E-3,1.058280002E-3,3.164578229E-4,1.591438398E-3
7.906792458E0,1.057290589E-3,1.441775355E-3,-1.850153785E-4,1.797445480E-3
7.916838458E0,2.415364143E-4,-5.228817463E-4,-1.363197342E-3,1.479882479E-3
7.926883458E0,1.898710616E-4,2.441084944E-4,5.492186174E-4,6.303023614E-4
7.936929458E0,-2.734537702E-4,1.255776733E-4,-9.932835819E-4,1.037862703E-3
7.946974458E0,6.980674807E-4,3.404947929E-4,-6.960747996E-4,1.042954955E-3
7.957020458E0,-1.604588004E-3,2.052178606E-4,1.046297839E-3,1.926539955E-3
7.967065458E0,2.740058117E-4,6.835213862E-4,-4.927428672E-4,8.860452604E-4
7.977111458E0,1.332600717E-3,-5.584247410E-4,-8.654526901E-4,1.684242032E-3
7.987157458E0,-6.959291641E-4,-1.413832419E-3,-3.373478539E-4,1.611534388E-3
7.997202458E0,4.170387983E-4,5.378550850E-4,6.259176880E-4,9.246525855E-4
8.007248458E0,9.160046466E-5,5.703456700E-4,1.350971870E-4,5.932420065E-4
8.017293458E0,1.152099110E-3,8.383030072E-4,-3.214995377E-5,1.425172941E-3
8.027339458E0,-7.126464043E-4,3.647929989E-4,-1.103539718E-3,1.363355691E-3
8.037384458E0,-3.087054938E-4,3.177551553E-4,-1.408471260E-3,1.476502188E-3
8.047430458E0,-1.880503260E-3,3.438540734E-4,4.147288855E-4,1.956151370E-3
8.057475458E0,-5.575802643E-4,1.573661342E-3,4.988857545E-4,1.742467437E-3
8.067521458E0,-8.097817190E-4,2.452768385E-4,7.119385991E-4,1.105786475E-3
8.077567458E0,1.477112528E-4,-5.318452604E-4,-9.247055277E-5,5.596684718E-4
8.087612458E0,4.558390938E-4,5.794917233E-4,-4.647804890E-4,8.715622983E-4
8.097658458E0,1.561469398E-4,-2.998723648E-4,-1.455992460E-4,3.681092806E-4
8.107703458E0,1.446448499E-3,-6.578071043E-5,-5.824747495E-5,1.449114603E-3
8.117749458E0,4.025222734E-4,-1.600170508E-3,-1.215923927E-3,2.049644074E-3
8.127794458E0,-1.117340289E-4,-5.801795051E-4,-7.709097117E-4,9.712849916E-4
8.137840458E0,-9.386413731E-4,-1.615004614E-3,-5.922135897E-4,1.959592934E-3
8.147885458E0,-8.435663767E-4,1.239105128E-3,1.665209420E-4,1.508215825E-3
8.157932250E0,-6.705357227E-4,4.551974125E-4,8.493561763E-4,1.173979878E-3
8.167978250E0,-8.601527661E-4,-3.634584136E-4,-1.031634631E-3,1.391486547E-3
8.178023250E0,7.367490325E-4,-7.817381993E-5,-2.177711576E-4,7.722270133E-4
8.188069250E0,-5.607430357E-4,-1.163411885E-3,-6.896832492E-4,1.464111660E-3
8.198114250E0,-5.382043310E-4,1.934273634E-3,-1.956670312E-4,2.017266462E-3
8.208160250E0,5.630126689E-4,5.526258610E-4,-1.253474620E-3,1.481073000E-3
8.218205250E0,-2.252785256E-3,4.640058614E-4,4.919604398E-4,2.352098621E-3
8.228251250E0,-5.510251503E-4,-1.144325361E-4,4.075381439E-4,6.948459256E-4
8.238296250E0,7.010339759E-4,4.162499681E-5,2.137804404E-5,7.025939770E-4
8.248342250E0,-1.098730136E-3,-2.124323510E-3,-3.667885903E-5,2.391924669E-3
8.258388250E0,-1.602055272E-3,-1.515943091E-3,1.441244967E-3,2.634739381E-3
8.268433250E0,-7.176194340E-4,-1.378790941E-3,5.094050430E-4,1.635706456E-3
8.278479250E0,-1.147780567E-4,-6.467904896E-4,-9.966024663E-5,6.644126011E-4
8.288524250E0,-6.245072000E-4,8.235406131E-4,-5.116512766E-4,1.153262942E-3
8.298570250E0,1.101936214E-4,-1.598318573E-3,-7.918165065E-4,1.787103320E-3
8.308615250E0,-6.253714673E-4,3.591049463E-4,5.661293399E-4,9.168141927E-4
8.318661250E0,-3.508208320E-4,-8.020414971E-4,-8.963446599E-4,1.252908444E-3
8.328706250E0,1.357330824E-3,4.975805059E-4,1.388259698E-4,1.452310565E-3
8.338752250E0,-7.771062665E-4,1.945020631E-4,3.482936881E-5,8.018343263E-4
8.348798250E0,-6.018322892E-5,5.015870556E-5,-8.107243339E-4,8.145009897E-4
8.358843250E0,1.001432538E-4,1.136218198E-4,1.304326579E-4,1.998781315E-4
8.368889250E0,1.012836583E-5,1.500862651E-3,-1.412070123E-3,2.060736110E-3
8.378934250E0,6.628157571E-4,-1.363764517E-3,1.578796655E-3,2.189012851E-3
8.388980250E0,-8.916715160E-4,4.398217425E-5,-1.176243532E-3,1.476672397E-3
8.399025250E0,-5.564941093E-4,9.808507748E-4,1.243094448E-4,1.134551354E-3
8.409071250E0,-3.738012165E-4,1.815218944E-3,1.509410795E-4,1.859443566E-3
8.419116250E0,1.418851316E-4,3.654966131E-4,9.581516497E-5,4.036083629E-4
8.429162250E0,-2.029940952E-4,5.284184590E-5,5.453615449E-5,2.167326821E-4
8.439208250E0,2.754894085E-4,5.247658119E-4,9.159364272E-4,1.090968886E-3
8.449253250E0,-8.441035170E-4,-6.698863581E-5,5.934278015E-4,1.033999410E-3
8.459299250E0,2.257209271E-4,1.644480973E-3,3.667925484E-4,1.699942465E-3
8.469344250E0,-1.011850080E-3,2.798773348E-4,-1.252675662E-3,1.634432079E-3
8.479390250E0,-2.393661300E-3,-8.079735562E-5,-3.346845042E-4,2.418296166E-3
8.489435250E0,-4.109381698E-4,3.210739233E-4,-7.464091759E-4,9.105412135E-4
8.499481250E0,4.053208977E-4,3.271987662E-4,1.691448502E-3,1.769842394E-3
8.509527250E0,7.312917151E-4,6.598276086E-4,1.902244985E-4,1.003167686E-3
8.519572250E0,-1.527384389E-3,-1.231934875E-4,-1.249613822E-3,1.977274491E-3
8.529618250E0,1.520337304E-3,4.951925948E-4,4.417598248E-4,1.658852907E-3
8.539663250E0,1.448616269E-3,8.990988135E-6,-2.944722073E-4,1.478270548E-3
8.549709250E0,-7.226588205E-4,2.497406676E-4,-4.396144068E-4,8.819676856E-4
8.559754250E0,-1.020867145E-3,-9.734686464E-4,-1.603148412E-3,2.135391244E-3
8.569800250E0,-3.625338431E-4,1.639891416E-3,-1.029898413E-4,1.682641242E-3
8.579845250E0,4.980945960E-5,-4.259343259E-4,-4.812953994E-4,6.446288030E-4
8.589891250E0,5.781805376E-4,9.493217804E-4,1.538428478E-5,1.111638994E-3
8.599937250E0,-7.139730733E-4,-2.473257948E-3,-1.270785229E-3,2.870828717E-3
8.609982250E0,2.197311260E-4,2.958970144E-4,7.260530256E-4,8.142418602E-4
8.620028250E0,-1.555634663E-3,-7.525072433E-4,-2.183038741E-4,1.741815988E-3
8.630073250E0,1.202924177E-4,1.686802134E-4,2.560052089E-4,3.293356148E-4
8.640119250E0,-5.807825364E-4,1.031851396E-3,9.657377377E-4,1.527964344E-3
8.650164250E0,1.174506964E-3,2.244921401E-3,6.666646805E-4,2.619843603E-3
8.660210250E0,1.080001821E-3,1.983868424E-3,1.278123818E-3,2.595330104E-3
8.670255250E0,-3.043091856E-4,1.342579257E-3,2.244324423E-5,1.376817650E-3
8.680301250E0,1.887767226E-3,9.729759768E-4,4.807759542E-4,2.177496928E-3
8.690347250E0,4.973307950E-4,9.897537529E-4,4.424264189E-4,1.192766342E-3
8.700392250E0,7.244491717E-4,7.827738300E-4,1.465213485E-3,1.812294686E-3
8.710438250E0,-1.252947841E-3,6.025843322E-5,1.352295512E-3,1.844508749E-3
8.720483250E0,1.068131533E-4,1.649049111E-3,7.188625168E-4,1.802091934E-3
8.730529250E0,3.142734058E-4,7.912451401E-4,9.834603406E-5,8.570347646E-4
8.740574250E0,-6.471439265E-4,4.238002002E-4,1.258818200E-3,1.477506390E-3
8.750620250E0,-1.422085334E-4,4.483009689E-4,-4.482680233E-4,6.497239771E-4
8.760665250E0,1.777184661E-4,-1.046089921E-3,8.629399817E-4,1.367681757E-3
8.770711250E0,3.761239350E-4,-9.749834426E-4,-9.160516784E-4,1.389680757E-3
8.780757250E0,8.203601465E-4,-6.649824791E-4,4.691889044E-4,1.155565098E-3
8.790802250E0,2.354243770E-5,-9.779040702E-4,1.462814165E-3,1.759737452E-3
8.800848250E0,-7.403874770E-4,7.624309510E-4,9.320478421E-4,1.413572690E-3
8.810893250E0,-2.021624241E-4,-1.505516935E-3,2.490795916E-3,2.917450117E-3
8.820939250E0,1.332514570E-3,-4.913010634E-4,-1.368123572E-3,1.971987303E-3
8.830984250E0,-1.135436818E-3,-6.356448866E-4,1.938338391E-5,1.301398058E-3
8.841030250E0,-3.362386487E-4,-7.812483236E-4,-3.466681810E-4,9.184683989E-4
8.851075250E0,4.778918810E-5,9.308978915E-4,-5.986031611E-4,1.107781763E-3
8.861121250E0,-1.023313962E-4,4.775356501E-4,-3.238982754E-4,5.860222731E-4
8.871167250E0,-6.948846858E-4,1.707117073E-3,-9.100600146E-4,2.055558965E-3
8.881212250E0,-9.460859001E-4,-1.267080661E-3,2.159245778E-4,1.595993532E-3
8.891258250E0,8.006813005E-4,-6.345794536E-4,-7.569149602E-5,1.024456358E-3
8.901303250E0,-1.609325409E-4,-5.841143429E-4,9.715957567E-4,1.145027145E-3
8.911349250E0,-5.305793602E-4,8.412096649E-4,-4.999293014E-5,9.958149682E-4
8.921394250E0,2.751410939E-4,7.522911765E-4,8.588116616E-4,1.174394357E-3
8.931440250E0,-6.867926568E-4,1.527803950E-3,4.819743335E-4,1.743034228E-3
8.941485250E0,8.620528970E-4,7.586311549E-4,4.762480967E-4,1.243168804E-3
8.951531250E0,-2.415610943E-4,3.022850491E-3,2.056709491E-4,3.039453469E-3
8.961577250E0,1.953600906E-3,2.731326036E-3,2.257772721E-4,3.365660974E-3
8.971622250E0,2.872610930E-4,2.021060791E-3,-6.165805971E-4,2.132458039E-3
8.981668250E0,1.158843748E-3,4.321588203E-4,4.199228715E-4,1.306145205E-3
8.991713250E0,-7.819454186E-5,-4.991483875E-4,1.602366334E-3,1.680131354E-3
9.001759250E0,-1.719136490E-3,-1.823968254E-3,7.115388289E-4,2.605489967E-3
9.011804250E0,-2.800646005E-3,-4.332931712E-3,2.183213364E-4,5.163872527E-3
9.021850250E0,1.073741470E-3,1.126914285E-4,4.663942382E-4,1.176071294E-3
9.031895250E0,1.620222116E-3,-2.239318565E-4,5.920953117E-4,1.739494766E-3
9.041941250E0,-1.129631419E-4,1.789151225E-3,2.277749591E-4,1.807125953E-3
9.051987250E0,3.011585213E-4,9.454619139E-4,-5.373512395E-4,1.128424140E-3
9.062032250E0,1.779298997E-3,1.670895610E-3,-4.906335380E-5,2.441352959E-3
9.072078250E0,-5.488365423E-4,-8.692275733E-4,-4.956754856E-4,1.141259090E-3
9.082123250E0,-4.102208186E-4,-2.319733612E-4,-2.221665345E-4,5.210093371E-4
9.092169250E0,-8.078308310E-4,-4.748694133E-3,-1.070116996E-3,4.934352744E-3
9.102214250E0,-7.672363427E-4,-3.240247723E-3,-1.059063827E-3,3.494205646E-3
9.112260250E0,-2.356693149E-4,2.508983947E-3,-4.460042110E-4,2.559191323E-3
9.122305250E0,-1.057759160E-3,-2.146444749E-3,-6.454762770E-4,2.478450953E-3
9.132351250E0,-2.572131343E-4,-6.358604878E-5,-4.180422984E-4,4.949354961E-4
9.142397250E0,-1.491616014E-3,-3.083387855E-3,9.071480017E-4,3.543319983E-3
9.152441583E0,-1.166710397E-3,-7.632416673E-4,-4.204377765E-4,1.456200164E-3
9.162487583E0,-1.148031326E-3,4.540258087E-4,6.221865769E-4,1.382472964E-3
9.172532583E0,4.440064076E-4,3.445697948E-4,-5.765022943E-4,8.051241698E-4
9.182578583E0,-8.673875127E-4,-1.123229973E-3,1.141905319E-3,1.821525302E-3
9.192623583E0,-4.173130728E-4,3.084852360E-4,-1.097802306E-4,5.304385361E-4
9.202669583E0,5.552732619E-4,8.501722477E-4,-3.894121619E-4,1.087549115E-3
9.212714583E0,3.656561021E-4,1.266690437E-3,-4.410775146E-4,1.390236822E-3
9.222760583E0,4.978022771E-4,-1.614717767E-3,6.821076386E-4,1.822194118E-3
9.232806583E0,-1.163743902E-3,1.266023610E-3,-9.394910885E-4,1.959530341E-3
9.242851583E0,-2.313386649E-4,8.376436308E-4,3.414901439E-4,9.336915703E-4
9.252897583E0,-6.880708970E-4,-9.464081377E-4,-1.173848636E-3,1.657422861E-3
9.262942583E0,-6.373557262E-4,-2.922442276E-3,2.595996484E-4,3.002379582E-3
9.272988583E0,5.466856528E-4,1.000660472E-3,4.465533420E-4,1.224580120E-3
9.283033583E0,-1.975692809E-3,-3.065555822E-3,5.914280191E-4,3.694696425E-3
9.293079583E0,-5.370529834E-4,2.111096401E-3,-5.769009003E-4,2.253434838E-3
9.303124583E0,-2.145632636E-3,-5.170856602E-4,3.068991937E-4,2.228296233E-3
9.313170583E0,1.072531100E-3,2.827844582E-3,7.101017982E-4,3.106649724E-3
9.323216583E0,8.146313485E-4,1.392398495E-3,-4.701786675E-4,1.680317167E-3
9.333261583E0,1.834621653E-4,3.950446844E-4,3.519391175E-4,5.599819740E-4
9.343307583E0,3.051890526E-4,-1.262526959E-3,-1.927630743E-3,2.324408519E-3
9.353352583E0,-3.080487717E-3,-7.486601360E-3,-7.174903294E-4,8.127324091E-3
9.363398583E0,-9.558552410E-4,-1.805329230E-3,1.046946272E-4,2.045442210E-3
9.373443583E0,4.417716991E-4,-1.054583583E-3,4.628899042E-4,1.233521719E-3
9.383489583E0,-2.584641101E-3,-6.878485903E-3,-2.246168442E-4,7.351489010E-3
9.393534583E0,-2.941238461E-3,-7.272633724E-3,8.153475355E-4,7.887133609E-3
9.403580583E0,-3.748324700E-3,-1.064775977E-2,-4.036738537E-4,1.129547161E-2
9.413626583E0,-2.864154987E-3,-1.015028264E-2,4.908819683E-4,1.055805790E-2
9.423671583E0,-3.467510920E-3,-1.139731705E-2,1.434237929E-3,1.199914607E-2
9.433717583E0,-1.860825811E-3,-7.086724509E-3,3.234995529E-5,7.327031014E-3
9.443762583E0,-4.600971006E-3,-1.718251407E-2,-8.956532693E-4,1.781038795E-2
9.453808583E0,-5.208704621E-3,-1.703603938E-2,-1.672786893E-4,1.781530869E-2
9.463853583E0,-3.761507105E-3,-1.477986854E-2,3.777332604E-4,1.525569179E-2
9.473899583E0,-5.444358569E-3,-2.287188545E-2,-5.365300458E-4,2.351705867E-2
9.483944583E0,-6.104486063E-3,-2.466866001E-2,-6.291829050E-5,2.541282148E-2
9.493990583E0,-4.461582284E-3,-1.830157265E-2,-3.034017282E-4,1.883999285E-2
9.504036583E0,-7.754826918E-3,-2.833076380E-2,-1.190850744E-3,2.939706862E-2
9.514081583E0,-1.373974979E-2,-5.926790088E-2,8.517936803E-4,6.084562722E-2
9.524127583E0,-2.312729321E-2,-8.473881334E-2,-5.424596602E-4,8.783981125E-2
9.534172583E0,-1.946651191E-2,-7.099423558E-2,1.920697978E-3,7.363976950E-2
9.544218583E0,-2.964786813E-2,-1.149974465E-1,3.268286586E-3,1.188027377E-1
9.554263583E0,-4.176019132E-2,-1.536146104E-1,1.273046248E-3,1.591947950E-1
9.564309583E0,-4.179809242E-2,-1.599469930E-1,3.540328471E-3,1.653561460E-1
9.574355583E0,-4.136479273E-2,-1.485902071E-1,3.498517210E-3,1.542800549E-1
9.584400583E0,-3.555718437E-2,-1.314004362E-1,4.603594542E-3,1.362041889E-1
9.594446583E0,-3.104312345E-2,-1.208463237E-1,1.923123142E-3,1.247846459E-1
9.604491583E0,-3.241299093E-2,-1.236927286E-1,2.475463552E-3,1.278930061E-1
9.614537583E0,-3.892388940E-2,-1.462411731E-1,4.084545188E-3,1.513876924E-1
9.624582583E0,-4.276954010E-2,-1.693010181E-1,4.473765846E-3,1.746770817E-1
9.634628583E0,-4.718958586E-2,-1.789531112E-1,3.041251563E-3,1.850954408E-1
9.644673583E0,-5.434627086E-2,-2.072788924E-1,4.172562622E-3,2.143256090E-1
9.654719583E0,-7.111592591E-2,-2.740755081E-1,7.814435288E-3,2.832594649E-1
9.664765583E0,-8.289673924E-2,-3.210311830E-1,9.603680111E-3,3.317003475E-1
9.674810583E0,-9.289158136E-2,-3.626632988E-1,7.886207663E-3,3.744538777E-1
9.684856583E0,-1.048656330E-1,-4.060819149E-1,9.202470072E-3,4.195044792E-1
9.694901583E0,-1.091719642E-1,-4.217908382E-1,9.893827140E-3,4.358026122E-1
9.704947583E0,-1.131597757E-1,-4.371961653E-1,7.862101309E-3,4.516718216E-1
9.714992583E0,-1.248257011E-1,-4.733952880E-1,-6.473157089E-3,4.896186844E-1
9.725038583E0,-1.527088583E-1,-5.640753508E-1,-1.069547534E-1,5.940878016E-1
9.735083583E0,-1.822571605E-1,-6.680528522E-1,-1.015642509E-1,6.998768341E-1
9.745129583E0,-1.974871904E-1,-7.358492017E-1,-5.258752406E-2,7.637019613E-1
9.755175583E0,-2.058660388E-1,-7.471961379E-1,-7.508910447E-2,7.786663394E-1
9.765220583E0,-6.567078084E-2,-4.556603730E-1,-5.712608621E-2,4.638991449E-1
9.775266583E0,-4.777330905E-3,-5.553397909E-2,-1.414665952E-2,5.750629270E-2
9.785311583E0,-3.887937404E-3,4.523878545E-2,6.761021912E-3,4.590615627E-2
9.795357583E0,-3.853050061E-3,-3.045384586E-2,1.269583357E-3,3.072286712E-2
9.805402583E0,-2.841131063E-3,-1.396412253E-1,1.455337740E-3,1.396777071E-1
9.815448583E0,-2.636067336E-3,-2.504830658E-1,3.278271295E-3,2.505183869E-1
9.825493583E0,-4.513944499E-3,-3.136994839E-1,7.811570540E-4,3.137329311E-1
9.835539583E0,-2.435347065E-3,-3.550906181E-1,1.008857274E-3,3.551004024E-1
9.845585583E0,-2.522518393E-3,-3.791154921E-1,1.666261349E-3,3.791275457E-1
9.855630583E0,-2.882577945E-3,-4.066190422E-1,1.546418993E-3,4.066322000E-1
9.865676583E0,-1.158816274E-3,-4.610949457E-1,-7.012878777E-4,4.610969351E-1
9.875721583E0,-1.650968334E-3,-5.367010236E-1,2.465210622E-3,5.367092245E-1
9.885767583E0,-2.231517108E-3,-6.051077843E-1,4.109844100E-3,6.051258556E-1
9.895812583E0,-2.406220650E-3,-6.712127328E-1,3.002767917E-3,6.712237624E-1
9.905858583E0,-1.460498897E-3,-6.776479483E-1,2.684520558E-3,6.776548395E-1
9.915903583E0,-1.341455616E-3,-6.539362073E-1,3.500513267E-3,6.539469522E-1
9.925949583E0,-1.238624798E-3,-6.216801405E-1,3.211826785E-3,6.216896711E-1
9.935995583E0,-1.269783825E-3,-5.944900513E-1,2.047226531E-3,5.944949323E-1
9.946040583E0,9.818649851E-4,-5.983265042E-1,2.557089785E-3,5.983327740E-1
9.956086583E0,-1.844547922E-3,-6.400004029E-1,3.662567819E-3,6.400135409E-1
9.966131583E0,-1.959155779E-4,-6.921290755E-1,1.542957500E-3,6.921308231E-1
9.976177583E0,5.337905604E-4,-7.313057780E-1,3.972825594E-3,7.313167640E-1
9.986222583E0,-5.830298178E-4,-7.582879066E-1,3.925285768E-3,7.582982904E-1
9.996268583E0,3.307007719E-4,-8.019145131E-1,2.655756660E-3,8.019189789E-1
1.000631358E1,-1.251854701E-3,-8.493984938E-1,2.779725706E-3,8.494039647E-1
1.001635958E1,-1.364506315E-3,-8.808344603E-1,2.666008892E-3,8.808395517E-1
1.002640558E1,-3.589172848E-4,-8.917984366E-1,1.896226080E-3,8.918005248E-1
1.003645058E1,4.903647350E-4,-8.866039515E-1,-1.753103686E-3,8.866058203E-1
1.004649658E1,1.220800914E-5,-8.913940191E-1,-1.785727101E-3,8.913958079E-1
1.005654158E1,-1.246934524E-3,-9.290173054E-1,1.671689097E-4,9.290181572E-1
1.006658758E1,-2.038679086E-4,-9.905089140E-1,-1.151632052E-3,9.905096045E-1
1.007663258E1,3.031978849E-4,-1.051545024E0,6.023258902E-4,1.051545240E0
1.008667858E1,-1.571972389E-4,-1.111402869E0,1.846556086E-3,1.111404414E0
1.009672358E1,-3.987457603E-4,-1.150795579E0,-1.883467310E-3,1.150797189E0
1.010676958E1,-1.443569548E-3,-1.139976978E0,-7.197806612E-3,1.140000616E0
1.011681558E1,-3.870305419E-2,-1.022310257E0,-1.227627546E-1,1.030381911E0
1.012686058E1,-6.705490500E-2,-8.868685365E-1,-2.321776450E-1,9.192054287E-1
1.013690658E1,-8.708720654E-2,-7.930898666E-1,-2.386736274E-1,8.327909813E-1
1.014695158E1,-5.600173771E-2,-8.265453577E-1,-1.603797674E-1,8.438217186E-1
1.015699821E1,-7.303318381E-2,-9.875108600E-1,-2.039898336E-1,1.011001185E0
1.016704321E1,-6.642330438E-2,-1.174596429E0,-1.772148013E-1,1.189745314E0
1.017708921E1,-6.657962501E-2,-1.279086113E0,-1.514335573E-1,1.289738831E0
1.018713521E1,-4.576887563E-2,-1.297712326E0,-1.058837697E-1,1.302829016E0
1.019718021E1,-3.069032356E-2,-1.273546815E0,-7.576634735E-2,1.276167671E0
1.020722621E1,-2.767770551E-2,-1.280668020E0,-6.864012033E-2,1.282804778E0
1.021727121E1,-3.276141360E-2,-1.318764806E0,-8.661513031E-2,1.322012142E0
1.022731721E1,-4.500671104E-2,-1.364286900E0,-1.024650708E-1,1.368869402E0
1.023736221E1,-5.091280490E-2,-1.393095970E0,-1.018613279E-1,1.397742546E0
1.024740821E1,-6.365623325E-2,-1.413181186E0,-1.180221885E-1,1.419528942E0
1.025745321E1,-1.204454824E-1,-1.380398154E0,-2.265526652E-1,1.404041413E0
1.026749921E1,-1.233758777E-1,-1.354487658E0,-2.229065299E-1,1.378240089E0
1.027754521E1,-8.836223930E-2,-1.345155478E0,-1.510821283E-1,1.356494362E0
1.028759021E1,-6.954143196E-2,-1.362318039E0,-1.156065688E-1,1.368981858E0
1.029763621E1,-8.273553103E-2,-1.324404716E0,-1.382226646E-1,1.334165854E0
1.030768121E1,-1.297721267E-1,-1.280404210E0,-2.118901014E-1,1.304290290E0
1.031772721E1,-1.737582237E-1,-1.294443011E0,-2.745049894E-1,1.334588933E0
1.032777221E1,-1.978976130E-1,-1.229871750E0,-3.058147430E-1,1.282681037E0
1.033781821E1,-2.003799528E-1,-1.105672002E0,-3.073897362E-1,1.164968305E0
1.034786321E1,-1.818394065E-1,-9.702938199E-1,-2.678360641E-1,1.022874295E0
1.035790921E1,-1.932939291E-1,-9.121162295E-1,-2.792461216E-1,9.732918142E-1
1.036795521E1,-2.030109912E-1,-8.958144188E-1,-2.817839384E-1,9.607804762E-1
1.037800021E1,-1.947719753E-1,-8.267303705E-1,-2.928048968E-1,8.984174617E-1
1.038804621E1,-2.164313942E-1,-7.339503765E-1,-2.886786163E-1,8.178392550E-1
1.039809121E1,-2.217390686E-1,-6.660653353E-1,-2.918240726E-1,7.602450492E-1
1.040813721E1,-2.278500795E-1,-6.353821158E-1,-3.010224998E-1,7.390809409E-1
1.041818221E1,-2.675314546E-1,-6.261910200E-1,-3.585763574E-1,7.695877317E-1
1.042822821E1,-3.036838472E-1,-6.392809153E-1,-3.797248900E-1,8.031780374E-1
1.043827321E1,-2.813713253E-1,-6.380838156E-1,-3.727937639E-1,7.907565800E-1
1.044831921E1,-2.845787406E-1,-6.642194986E-1,-3.564548492E-1,8.057497512E-1
1.045836521E1,-2.633381784E-1,-7.431782484E-1,-3.301279247E-1,8.547779547E-1
1.046841021E1,-2.431504428E-1,-8.104016781E-1,-2.815279067E-1,8.917011719E-1
1.047845621E1,-2.088630497E-1,-8.601686954E-1,-2.497721016E-1,9.197282539E-1
1.048850121E1,-1.750248820E-1,-8.483084440E-1,-2.018770128E-1,8.893903833E-1
1.049854721E1,-1.618840545E-1,-8.390079141E-1,-1.835270375E-1,8.739696222E-1
1.050859221E1,-1.966588050E-1,-8.495574594E-1,-2.251296043E-1,9.006141799E-1
1.051863821E1,-2.549077272E-1,-8.237660527E-1,-2.565346658E-1,8.996546525E-1
1.052868321E1,-3.065343499E-1,-8.448343873E-1,-2.959645092E-1,9.462047561E-1
1.053872921E1,-3.069420755E-1,-8.199934959E-1,-2.798252106E-1,9.191870971E-1
1.054877521E1,-2.937628329E-1,-8.297157884E-1,-2.560134828E-1,9.166612214E-1
1.055882021E1,-2.749603987E-1,-8.348149657E-1,-2.119243145E-1,9.041189982E-1
1.056886621E1,-2.605052292E-1,-8.788572550E-1,-1.879113913E-1,9.357156299E-1
1.057891121E1,-2.701013982E-1,-9.296786785E-1,-1.942846030E-1,9.874227654E-1
1.058895721E1,-2.260710895E-1,-9.273787737E-1,-1.351256669E-1,9.640531486E-1
1.059900221E1,-1.861793399E-1,-9.721643329E-1,-9.688480943E-2,9.945616637E-1
1.060904821E1,-1.812423021E-1,-1.066005111E0,-9.328528494E-2,1.085319222E0
1.061909421E1,-1.842993498E-1,-1.126142740E0,-6.371673942E-2,1.142901371E0
1.062913921E1,-1.854023486E-1,-1.202512383E0,-7.853816450E-2,1.219253176E0
1.063918521E1,-1.677740812E-1,-1.201032996E0,-9.920029342E-2,1.216745289E0
1.064923021E1,-1.399732232E-1,-1.042006254E0,-1.308057606E-1,1.059471417E0
1.065927621E1,-1.196327955E-1,-8.986120820E-1,-1.359507143E-1,9.166778477E-1
1.066932121E1,-8.638877422E-2,-8.968787789E-1,-1.518352777E-1,9.137332849E-1
1.067936721E1,-4.438779131E-2,-9.158341289E-1,-1.432154328E-1,9.280264478E-1
1.068941221E1,-2.616977505E-2,-9.663961530E-1,-1.329875439E-1,9.758545324E-1
1.069945821E1,6.520793773E-3,-1.026307821E0,-1.194978505E-1,1.033261826E0
1.070950421E1,1.989258081E-2,-1.068468571E0,-1.169605255E-1,1.075035146E0
1.071954921E1,4.255767912E-2,-1.090206385E0,-1.356721669E-1,1.099439882E0
1.072959521E1,-4.014151543E-2,-9.601196051E-1,-6.729110330E-2,9.633115228E-1
1.073964021E1,-9.686498344E-2,-9.307894111E-1,-7.774560899E-2,9.390400058E-1
1.074968621E1,-1.030133292E-1,-9.365156293E-1,-7.400040329E-2,9.450657806E-1
1.075973121E1,-9.623877704E-2,-9.382488132E-1,-7.171434164E-2,9.458941190E-1
1.076977721E1,-9.516122192E-2,-9.096183181E-1,-6.190539151E-2,9.166751989E-1
1.077982221E1,-1.021786556E-1,-8.619152308E-1,-6.914359331E-2,8.707003957E-1
1.078986821E1,-1.022254229E-1,-8.313249350E-1,-6.903041154E-2,8.404263098E-1
1.079991421E1,-1.082636118E-1,-8.109118342E-1,-6.942615658E-2,8.210475040E-1
1.080995921E1,-9.584902227E-2,-8.218560815E-1,-6.139086932E-2,8.297007247E-1
1.082000521E1,-9.304817021E-2,-8.058134913E-1,-5.918976665E-2,8.133245190E-1
1.083005021E1,-9.593946487E-2,-7.965748310E-1,-5.945928022E-2,8.045316950E-1
1.084009621E1,-9.399162978E-2,-8.048295379E-1,-4.990226030E-2,8.118344949E-1
1.085014121E1,-1.229923964E-1,-7.806730866E-1,-6.912256032E-2,7.933193091E-1
1.086018721E1,-1.124183089E-1,-7.832587361E-1,-6.683863699E-2,7.941029702E-1
1.087023321E1,-9.879923612E-2,-7.743254900E-1,-5.600675568E-2,7.826097432E-1
1.088027821E1,-1.033271402E-1,-7.551041245E-1,-5.921879411E-2,7.644380958E-1
1.089032421E1,-9.120444953E-2,-7.545205355E-1,-4.942967743E-2,7.616185286E-1
1.090036921E1,-1.005683914E-1,-7.504520416E-1,-5.343534052E-2,7.590438747E-1
1.091041521E1,-8.959646523E-2,-7.857469320E-1,-4.903580248E-2,7.923574179E-1
1.092046021E1,-1.292623729E-1,-7.425241470E-1,-7.125349343E-2,7.570521318E-1
1.093050621E1,-1.204553992E-1,-7.297321558E-1,-5.819347501E-2,7.418928514E-1
1.094055121E1,-1.281692386E-1,-6.853750944E-1,-6.039883941E-2,6.998674114E-1
1.095059721E1,-1.133966669E-1,-6.870779991E-1,-5.437836796E-2,6.984926541E-1
1.096064321E1,-1.007980481E-1,-7.112333775E-1,-4.754948989E-2,7.199125764E-1
1.097068821E1,-1.241350770E-1,-7.209891081E-1,-6.078752503E-2,7.341184744E-1
1.098073421E1,-1.086032465E-1,-7.753647566E-1,-4.962275550E-2,7.845046773E-1
1.099077921E1,-1.090596989E-1,-8.119012713E-1,-4.533147439E-2,8.204466070E-1
1.100082521E1,-8.614666015E-2,-8.761636019E-1,-3.803201392E-2,8.812095882E-1
1.101087021E1,-1.021900624E-1,-8.745678067E-1,-4.552015662E-2,8.816936781E-1
1.102091621E1,-1.140022427E-1,-8.788925409E-1,-4.455476254E-2,8.873746315E-1
1.103096121E1,-1.285101473E-1,-8.680509329E-1,-5.212747306E-2,8.790589022E-1
1.104100721E1,-1.172652096E-1,-8.681798577E-1,-4.858759791E-2,8.774099096E-1
1.105105321E1,-1.215851158E-1,-8.403037786E-1,-4.817040265E-2,8.504197602E-1
1.106109821E1,-1.334372461E-1,-8.225055933E-1,-4.870703071E-2,8.346815707E-1
1.107114421E1,-6.529288739E-2,-9.011090994E-1,-2.226490714E-2,9.037458140E-1
1.108118921E1,2.927789465E-4,-9.455109239E-1,2.894507954E-3,9.455153997E-1
1.109123521E1,2.358310157E-3,-9.210869670E-1,3.910636529E-3,9.210982876E-1
1.110128021E1,2.896268619E-3,-9.025476575E-1,5.460863002E-3,9.025688248E-1
1.111132621E1,2.762970980E-3,-8.963660598E-1,4.792946391E-3,8.963831321E-1
1.112137221E1,2.947261790E-3,-8.945074677E-1,3.359899623E-3,8.945186332E-1
1.113141721E1,2.372453222E-3,-8.960788250E-1,1.453875098E-3,8.960831451E-1
1.114146321E1,3.351963824E-3,-8.796039820E-1,1.868795604E-3,8.796123539E-1
1.115150821E1,2.987029031E-3,-8.256471753E-1,1.969861798E-3,8.256549284E-1
1.116155346E1,9.331991896E-4,-7.793228030E-1,3.147511743E-3,7.793297178E-1
1.117159846E1,3.123812843E-3,-7.444933653E-1,4.429291934E-3,7.445130944E-1
1.118164446E1,5.484971218E-3,-7.205653787E-1,4.348065704E-3,7.205993724E-1
1.119168946E1,4.428242147E-2,-6.417729855E-1,1.332944073E-2,6.434369990E-1
1.120173546E1,7.505577803E-2,-5.909332633E-1,2.132318541E-2,5.960622197E-1
1.121178146E1,7.212913036E-2,-5.546965599E-1,2.080280520E-2,5.597531972E-1
1.122182646E1,6.626032293E-2,-5.219945908E-1,2.019320615E-2,5.265705544E-1
1.123187246E1,1.354805566E-2,-5.347794890E-1,8.549734019E-3,5.350193919E-1
1.124191746E1,4.961492028E-3,-5.625740886E-1,6.841050461E-3,5.626375579E-1
1.125196346E1,2.126479754E-3,-6.261174679E-1,5.792162381E-3,6.261478696E-1
1.126200846E1,8.689350216E-4,-7.035227418E-1,3.379871603E-3,7.035313972E-1
1.127205446E1,5.952933570E-4,-7.754691839E-1,2.343370812E-3,7.754729531E-1
1.128210046E1,-2.817015164E-3,-8.331689835E-1,2.140171593E-3,8.331764945E-1
1.129214546E1,-3.687016433E-3,-9.128855467E-1,3.982942551E-3,9.129016811E-1
1.130219146E1,-3.869975684E-3,-1.023667693E0,1.896888483E-3,1.023676766E0
1.131223646E1,-2.199759707E-3,-1.157832861E0,2.126056002E-3,1.157836903E0
1.132228246E1,-1.960341353E-3,-1.247658610E0,3.665895434E-3,1.247665536E0
1.133232746E1,-5.782428198E-4,-1.296097875E0,4.773369990E-3,1.296106793E0
1.134237346E1,-5.910261534E-4,-1.301906228E0,3.581072669E-3,1.301911287E0
1.135241846E1,7.235797821E-4,-1.256965280E0,5.683899857E-3,1.256978339E0
1.136246446E1,1.978718210E-4,-1.190243840E0,1.725643873E-3,1.190245108E0
1.137251046E1,2.051714575E-3,-1.119841099E0,1.278632786E-3,1.119843708E0
1.138255546E1,1.103895484E-3,-1.042022228E0,1.892225118E-3,1.042024531E0
1.139260146E1,3.227114910E-3,-9.486207366E-1,4.122759216E-3,9.486351845E-1
1.140264646E1,1.478749793E-3,-8.501085639E-1,5.139820278E-3,8.501253877E-1
1.141269246E1,-2.500594128E-4,-7.818833590E-1,4.650732502E-3,7.818972304E-1
1.142273746E1,6.815142697E-4,-7.183584571E-1,5.685903132E-3,7.183812823E-1
1.143278346E1,1.151475823E-3,-6.452352405E-1,5.731844343E-3,6.452617263E-1
1.144282946E1,-5.520251580E-5,-5.683093071E-1,8.640015498E-3,5.683749831E-1
1.145287446E1,-9.789175820E-4,-4.798539877E-1,6.990187336E-3,4.799058976E-1
1.146292046E1,-1.497967867E-3,-3.999359608E-1,5.663400050E-3,3.999788628E-1
1.147296546E1,-3.190004965E-3,-3.148261011E-1,5.610135384E-3,3.148922413E-1
1.148301146E1,-1.113804523E-3,-2.648894191E-1,3.498514649E-3,2.649148627E-1
1.149305646E1,-1.603010809E-3,-2.679936588E-1,3.048574086E-3,2.680157917E-1
1.150310246E1,-8.272321429E-4,-2.794023752E-1,4.678162746E-3,2.794427612E-1
1.151314746E1,-5.781732034E-4,-3.041326404E-1,3.104362404E-3,3.041490330E-1
1.152319346E1,-8.042855188E-5,-3.620273471E-1,3.054028610E-3,3.620402375E-1
1.153323946E1,9.898236021E-5,-4.296484888E-1,4.485881887E-3,4.296719177E-1
1.154328446E1,9.932719404E-4,-5.107763410E-1,4.898938350E-3,5.108007994E-1
1.155333046E1,6.276199128E-4,-5.848814845E-1,1.610200386E-3,5.848840377E-1
1.156337546E1,-1.117815729E-3,-6.003009081E-1,2.136707073E-3,6.003057515E-1
1.157342146E1,-2.615931444E-4,-5.649318099E-1,1.350409118E-3,5.649334845E-1
1.158346646E1,8.707829984E-4,-5.378594398E-1,4.896754399E-4,5.378603676E-1
1.159351246E1,-1.028833445E-3,-5.367441773E-1,8.818265051E-4,5.367458878E-1
1.160355746E1,-1.760137500E-3,-4.980548024E-1,1.135359285E-3,4.980592067E-1
1.161360346E1,1.009567641E-4,-4.083424211E-1,2.942182589E-3,4.083530329E-1
1.162364946E1,-4.540460650E-4,-3.316340744E-1,2.652430441E-3,3.316449922E-1
1.163369446E1,-1.813084818E-3,-3.055844009E-1,1.198077342E-3,3.055921281E-1
1.164374046E1,-1.065535704E-3,-3.030309677E-1,1.599149546E-3,3.030370605E-1
1.165378546E1,-1.182526583E-3,-3.161055744E-1,-5.251293769E-4,3.161082224E-1
1.166383146E1,1.536333002E-5,-3.309521675E-1,1.076762099E-3,3.309539195E-1
1.167387646E1,-2.414186019E-4,-3.010034561E-1,-1.199568855E-3,3.010059432E-1
1.168392246E1,-8.137319237E-4,-2.376609743E-1,6.963354535E-4,2.376633874E-1
1.169396846E1,9.507106151E-4,-1.186759025E-1,-1.207203604E-4,1.186797719E-1
1.170401346E1,1.250316272E-3,6.014630944E-2,-1.911163563E-3,6.018965339E-2
1.171405946E1,-4.702333827E-4,2.494218051E-1,-1.886266051E-3,2.494293808E-1
1.172410446E1,2.102043945E-4,3.724845946E-1,-2.580818487E-3,3.724935946E-1
1.173415046E1,1.224102569E-3,4.109213352E-1,-1.077729510E-3,4.109245717E-1
1.174419546E1,-2.371738665E-4,4.018178582E-1,-3.578704083E-3,4.018338644E-1
1.175424146E1,1.680785324E-3,3.607468009E-1,-3.235557117E-3,3.607652259E-1
1.176428746E1,1.641370589E-3,3.133755624E-1,-3.471246921E-3,3.133990855E-1
1.177433246E1,1.389251440E-3,2.619804442E-1,-3.222905099E-3,2.620039509E-1
1.178437846E1,4.752546083E-4,2.156244069E-1,-3.426104318E-3,2.156521480E-1
1.179442346E1,-7.633655332E-4,1.743823588E-1,-4.774329253E-3,1.744493738E-1
1.180446946E1,-1.071227016E-3,1.367881149E-1,-3.043008270E-3,1.368261518E-1
1.181451446E1,-7.305757608E-4,1.203855574E-1,-3.620913718E-3,1.204422152E-1
1.182456046E1,-1.522866311E-3,1.665543914E-1,-3.571112640E-3,1.665996316E-1
1.183460546E1,-1.428291202E-3,2.343330234E-1,-1.329262857E-3,2.343411462E-1
1.184465146E1,3.352540080E-4,2.939649224E-1,-2.711177105E-3,2.939776156E-1
1.185469746E1,-3.878923599E-4,3.293185532E-1,-3.817189950E-3,3.293409038E-1
1.186474246E1,1.305611688E-3,3.368302584E-1,-5.718618631E-4,3.368332742E-1
1.187478846E1,-3.571512643E-4,3.032867312E-1,-7.938341005E-4,3.032879804E-1
1.188483346E1,-4.042892251E-4,1.959035397E-1,-1.756566809E-3,1.959118318E-1
1.189487946E1,-6.673112512E-4,2.609836124E-2,2.168400912E-3,2.619678847E-2
1.190492446E1,4.604225978E-6,-1.344180703E-1,1.174509292E-3,1.344232016E-1
1.191497046E1,2.366025001E-4,-2.410447150E-1,7.566558197E-4,2.410460188E-1
1.192501546E1,-1.005762257E-3,-2.632160783E-1,1.818724442E-3,2.632242830E-1
1.193506146E1,-7.752636448E-4,-2.569498718E-1,2.527920529E-3,2.569634760E-1
1.194510746E1,-1.034389250E-3,-2.327279001E-1,3.388653975E-3,2.327548677E-1
1.195515246E1,7.444303483E-4,-1.793794185E-1,9.617228061E-4,1.793835412E-1
1.196519846E1,-2.673044801E-4,-9.548293054E-2,-4.564105766E-4,9.548439552E-2
1.197524346E1,-1.124621136E-3,-3.663077205E-2,5.376087502E-4,3.665197481E-2
1.198528946E1,1.228228211E-5,-3.505178541E-2,-1.391052618E-3,3.507937911E-2
1.199533446E1,9.327102453E-5,-6.041568518E-2,4.396098666E-4,6.041735654E-2
1.200538046E1,2.124197548E-3,-1.467955709E-1,-2.108769026E-3,1.468260833E-1
1.201542646E1,-7.924963720E-4,-3.435531259E-1,7.685101591E-4,3.435548995E-1
1.202547146E1,-3.770433832E-4,-5.124334693E-1,2.704894636E-3,5.124407469E-1
1.203551746E1,-4.131598398E-4,-6.397550106E-1,5.429838784E-3,6.397781861E-1
1.204556246E1,6.521044997E-4,-7.287709117E-1,4.288674332E-3,7.287838223E-1
1.205560846E1,-1.484414330E-3,-7.756111026E-1,4.304383881E-3,7.756244669E-1
1.206565346E1,-6.601470523E-5,-7.413644195E-1,2.424458275E-3,7.413683867E-1
1.207569946E1,1.289313077E-3,-6.453657746E-1,1.008860767E-3,6.453678511E-1
1.208574446E1,3.556087613E-4,-5.328317881E-1,1.486099092E-3,5.328339791E-1
1.209579046E1,5.100497510E-3,-3.941942453E-1,-1.047362480E-2,3.943663461E-1
1.210583646E1,2.272486687E-3,-2.243506536E-2,-4.386438057E-3,2.297253125E-2
1.211588146E1,-5.836850964E-3,4.218429625E-1,2.985585248E-3,4.218939056E-1
1.212592746E1,-6.650713272E-3,5.207002759E-1,3.663892625E-3,5.207556370E-1
1.213597246E1,8.833385073E-5,3.207718134E-1,-1.619919203E-5,3.207718260E-1
1.214601846E1,2.063600579E-3,1.911224723E-1,-4.588166485E-4,1.911341633E-1
1.215606446E1,7.395093562E-4,2.044636905E-1,-8.790621068E-4,2.044669175E-1
1.216611046E1,6.742618280E-4,2.400294095E-1,2.135266550E-5,2.400303575E-1
1.217615646E1,9.813901270E-4,2.795469761E-1,-3.387049073E-4,2.795489039E-1
1.218620146E1,1.002695411E-3,3.165611923E-1,-2.028480638E-3,3.165692793E-1
1.219624746E1,2.562787384E-3,3.361379206E-1,-3.394543659E-3,3.361648293E-1
1.220629246E1,1.944382675E-4,3.540855050E-1,-4.219857045E-3,3.541107028E-1
1.221633846E1,4.486104008E-4,3.599303365E-1,-3.938904032E-3,3.599521681E-1
1.222638346E1,3.679823596E-3,3.434504271E-1,5.700937472E-4,3.434706129E-1
1.223642946E1,7.352308184E-2,9.192350507E-2,-9.664689191E-3,1.181058024E-1
1.224647546E1,1.380440146E-1,1.418175548E-1,-1.145513263E-2,1.982412391E-1
1.225652046E1,2.081854492E-1,-1.091894414E-2,-6.034407765E-3,2.085589094E-1
1.226656646E1,2.449610382E-1,-6.526819617E-2,-7.083958946E-3,2.536060531E-1
1.227661146E1,2.238317877E-1,-3.805640154E-3,-6.729226559E-3,2.239652531E-1
1.228665746E1,1.981793195E-1,5.621775985E-2,-5.077662878E-3,2.060613061E-1
1.229670246E1,2.114959210E-1,7.983493805E-2,-9.646847844E-3,2.262679907E-1
1.230674846E1,2.261374593E-1,8.712027967E-2,-1.054646447E-2,2.425681791E-1
1.231679346E1,2.334871590E-1,9.339904040E-2,-6.727625616E-3,2.515648925E-1
1.232683946E1,2.537817955E-1,1.041736528E-1,-5.398974754E-3,2.743838527E-1
1.233688546E1,2.684111297E-1,1.275094002E-1,-1.240176242E-2,2.974171909E-1
1.234693046E1,2.629170120E-1,1.313419491E-1,-9.641395882E-3,2.940561499E-1
1.235697646E1,3.232206106E-1,1.574777216E-1,-7.241613697E-3,3.596154014E-1
1.236702146E1,3.827225566E-1,1.072462499E-1,-9.523143992E-3,3.975789277E-1
1.237706746E1,3.942069113E-1,1.014294922E-1,-1.159668155E-2,4.072118783E-1
1.238711246E1,3.859221041E-1,8.565638959E-2,-1.335143670E-2,3.955390605E-1
1.239715846E1,3.859640658E-1,5.126890913E-2,-1.158883423E-2,3.895267156E-1
1.240720446E1,3.911623061E-1,-7.217570674E-3,-7.987707853E-3,3.913104222E-1
1.241724946E1,4.049305022E-1,-4.103585333E-2,-8.026982658E-3,4.070836343E-1
1.242729546E1,4.120968282E-1,-3.255848214E-2,-3.933970816E-3,4.133997178E-1
1.243734046E1,4.019091725E-1,3.386395425E-2,-1.273198891E-2,4.035342041E-1
1.244738646E1,3.817586303E-1,1.762757003E-1,-8.790510707E-3,4.205829851E-1
1.245743146E1,3.889759183E-1,3.072667718E-1,-1.392255351E-2,4.958920967E-1
1.246747746E1,4.148876667E-1,2.931195199E-1,-1.083301939E-2,5.081025322E-1
1.247752346E1,4.813672006E-1,2.320720553E-1,-1.196167152E-2,5.345230606E-1
1.248756846E1,4.662367105E-1,3.396904171E-1,-8.634317666E-3,5.769235661E-1
1.249761446E1,5.520543456E-1,3.183859885E-1,-7.356668822E-3,6.373286113E-1
1.250765946E1,6.274803877E-1,2.418693900E-1,-1.386996172E-2,6.726253152E-1
1.251770546E1,6.263918877E-1,2.562874258E-1,-2.163906116E-3,6.767974025E-1
1.252775046E1,6.413961649E-1,3.302313983E-1,-2.429423388E-3,7.214206255E-1
1.253779646E1,7.038475275E-1,3.252795935E-1,-6.134058349E-4,7.753763810E-1
1.254784146E1,7.313494682E-1,3.604263961E-1,6.443172228E-3,8.153654065E-1
1.255788746E1,7.925686240E-1,3.489682078E-1,2.149617299E-3,8.659956436E-1
1.256793346E1,8.146643639E-1,3.366889358E-1,1.256843563E-2,8.815868822E-1
1.257797846E1,8.484248519E-1,3.225165904E-1,3.713961923E-3,9.076648467E-1
1.258802446E1,9.277409911E-1,1.954734176E-1,1.812938601E-2,9.482836486E-1
1.259806946E1,9.835360050E-1,7.244675420E-3,2.157512121E-2,9.837992907E-1
1.260811546E1,1.055417538E0,-1.414284259E-1,1.871302165E-2,1.065015660E0
1.261816046E1,1.146107197E0,-2.618254423E-1,2.930108272E-2,1.175998649E0
1.262820646E1,1.248554230E0,-4.255616367E-1,2.734658867E-2,1.319370383E0
1.263825246E1,1.311963916E0,-5.028913021E-1,2.318832651E-2,1.405235452E0
1.264829746E1,1.341452360E0,-5.117838979E-1,2.986386186E-3,1.435766733E0
1.265834346E1,1.367730856E0,-4.891968966E-1,-2.280410379E-3,1.452586141E0
1.266838846E1,1.331200242E0,-4.558333755E-1,-1.363293361E-2,1.407147472E0
1.267843446E1,1.377806306E0,-4.733799398E-1,3.788885660E-4,1.456859268E0
1.268847946E1,1.379642487E0,-3.926669657E-1,-6.451587193E-3,1.434448451E0
1.269852546E1,1.383881688E0,-2.540895641E-1,-2.016473375E-2,1.407159071E0
1.270857146E1,1.423251987E0,-1.118016466E-1,-2.454776503E-2,1.427847477E0
1.271861646E1,1.455970168E0,-9.210816771E-2,-2.224200405E-2,1.459050291E0
1.272866246E1,1.491338253E0,5.811275914E-2,-3.210741654E-2,1.492815382E0
1.273870746E1,1.497852683E0,1.215085834E-1,-3.956067562E-2,1.503293731E0
1.274875346E1,1.512478471E0,6.998173892E-2,-3.680004179E-2,1.514543763E0
1.275879846E1,1.562314630E0,-2.367693931E-1,-9.854041040E-3,1.580184752E0
1.276884446E1,1.532228112E0,-2.609876394E-1,-2.546709031E-2,1.554505101E0
1.277888946E1,1.588874936E0,-3.612897992E-1,-2.375907078E-2,1.629606816E0
1.278893546E1,1.658911824E0,-2.690072954E-1,-3.543277085E-2,1.680954743E0
1.279898146E1,1.727666974E0,-2.479431033E-1,-5.428449064E-2,1.746211832E0
1.280902646E1,1.728773832E0,-5.613449961E-2,-5.062317848E-2,1.730425598E0
1.281907246E1,1.765268087E0,4.234132543E-2,-6.570572406E-2,1.766997864E0
1.282911746E1,1.853439450E0,8.144185692E-2,-4.729449376E-2,1.855830634E0
1.283916346E1,1.901520848E0,3.513015211E-1,-5.820120126E-2,1.934575322E0
1.284920846E1,1.964970946E0,3.292225897E-1,-5.627360567E-2,1.993154548E0
1.285925446E1,2.038526297E0,4.074622691E-1,-4.687783867E-2,2.079377910E0
1.286930046E1,2.157448769E0,3.834770322E-1,-5.444334447E-2,2.191940670E0
1.287934546E1,2.210804224E0,2.530029118E-1,-2.228568122E-2,2.225345466E0
1.288939146E1,2.252653360E0,7.889742404E-2,-3.064054996E-2,2.254242846E0
1.289943646E1,2.415285110E0,-2.183309942E-1,-3.090513498E-2,2.425330022E0
1.290948246E1,2.483718634E0,-3.959915340E-1,-2.918207087E-2,2.515257271E0
1.291952746E1,2.619200945E0,-6.139999032E-1,-3.772854805E-2,2.690470761E0
1.292957346E1,2.723253965E0,-8.099323511E-1,-7.442983985E-2,2.842119346E0
1.293961946E1,2.694798946E0,-5.615642071E-1,-8.609157056E-2,2.754034764E0
1.294966446E1,2.651360512E0,-2.224205136E-1,-1.077638417E-1,2.662854952E0
1.295971046E1,2.656428337E0,1.389179826E-1,-1.081667691E-1,2.662256518E0
1.296975546E1,2.649778605E0,4.776033759E-1,-1.122462004E-1,2.694815550E0
1.297980146E1,2.716530085E0,5.691614151E-1,-8.493828028E-2,2.776813809E0
1.298984646E1,2.808210611E0,6.625451446E-1,-9.288435429E-2,2.886804533E0
1.299989246E1,2.884289980E0,2.470331192E-1,-5.585442856E-2,2.895388362E0
1.300993846E1,2.962760925E0,-1.585466117E-1,-4.686093330E-2,2.967370094E0
1.301998346E1,2.939641714E0,-3.123005331E-1,-8.253356814E-2,2.957336102E0
1.303002946E1,2.917483807E0,-5.987820625E-1,-6.664089113E-2,2.979042250E0
1.304007446E1,2.880433798E0,-6.440080404E-1,-7.646796107E-2,2.952540020E0
1.305012046E1,2.824301481E0,-7.789365649E-1,-1.045744345E-1,2.931613351E0
1.306016546E1,2.691049576E0,-5.637202263E-1,-1.238027215E-1,2.752245524E0
1.307021146E1,2.542370796E0,-4.642245471E-1,-1.257289797E-1,2.587462361E0
1.308025746E1,2.442821026E0,-4.243415296E-1,-1.287058741E-1,2.482741529E0
1.309030246E1,2.371080875E0,-3.754624128E-1,-1.350676417E-1,2.404420888E0
1.310034846E1,2.239854336E0,-2.235695273E-1,-1.444860399E-1,2.255616766E0
1.311039346E1,2.106969595E0,3.369156644E-2,-1.378933787E-1,2.111745861E0
1.312043946E1,2.120535374E0,3.062763512E-1,-1.402682364E-1,2.147126138E0
1.313048446E1,2.134232521E0,1.765705645E-1,-1.379262507E-1,2.145961153E0
1.314053046E1,2.102741003E0,-9.167246521E-2,-1.230473220E-1,2.108332092E0
1.315057546E1,2.115680456E0,-2.728694081E-1,-1.192603037E-1,2.136535637E0
1.316062071E1,2.140805483E0,-3.071566224E-1,-1.271657646E-1,2.166463579E0
1.317066671E1,2.163188457E0,-2.700183392E-1,-1.418752074E-1,2.184587554E0
1.318071171E1,2.143489599E0,-1.981247365E-1,-1.492086202E-1,2.157791530E0
1.319075771E1,2.158277035E0,-2.487583458E-1,-1.452809870E-1,2.177417516E0
1.320080271E1,2.151535273E0,-2.322329879E-1,-1.544872522E-1,2.169539698E0
1.321084871E1,2.061821222E0,-4.383299127E-2,-1.696350425E-1,2.069252071E0
1.322089471E1,2.044215679E0,7.843762636E-3,-1.610820442E-1,2.050567407E0
1.323093971E1,2.066280603E0,7.565796375E-2,-1.642522812E-1,2.074178987E0
1.324098571E1,2.141022205E0,-9.993433952E-3,-1.581576318E-1,2.146879081E0
1.325103071E1,2.193087339E0,9.546774626E-2,-1.542110890E-1,2.200574295E0
1.326107671E1,2.292277336E0,3.280366063E-1,-1.652940959E-1,2.321522246E0
1.327112171E1,2.353698254E0,4.099618495E-1,-1.654964983E-1,2.394859762E0
1.328116771E1,2.440500736E0,4.616548494E-2,-1.584521681E-1,2.446074853E0
1.329121271E1,2.493981838E0,-1.715809554E-1,-1.608226448E-1,2.505044781E0
1.330125871E1,2.580544710E0,-2.584446967E-1,-1.914436966E-1,2.600510594E0
1.331130471E1,2.617419720E0,-1.466209441E-1,-1.873927563E-1,2.628212270E0
1.332134971E1,2.655598640E0,3.838999569E-2,-1.866358817E-1,2.662425752E0
1.333139571E1,2.740201235E0,-2.541162074E-2,-1.975154281E-1,2.747428052E0
1.334144071E1,2.799391747E0,3.425456583E-2,-2.041031569E-1,2.807031461E0
1.335148671E1,2.913048029E0,8.460509032E-2,-2.145028114E-1,2.922159868E0
1.336153171E1,3.012135029E0,-1.674973220E-2,-2.073816359E-1,3.019312029E0
1.337157771E1,3.082961082E0,3.963151947E-2,-2.105811536E-1,3.090398698E0
1.338162371E1,3.109733820E0,1.978029162E-1,-2.214056998E-1,3.123874343E0
1.339166871E1,3.156631708E0,2.570672929E-1,-2.175617069E-1,3.174545705E0
1.340171471E1,3.212169170E0,1.419555992E-1,-2.012330592E-1,3.221595399E0
1.341175971E1,3.146397114E0,2.283701152E-1,-1.978183538E-1,3.160870103E0
1.342180571E1,3.113600731E0,7.826306671E-2,-1.905328780E-1,3.120406608E0
1.343185071E1,3.071157694E0,-4.215176031E-2,-1.926056147E-1,3.077480020E0
1.344189671E1,3.063039780E0,-2.451964654E-2,-1.918420941E-1,3.069139504E0
1.345194271E1,3.054644823E0,5.831851065E-2,-1.903389990E-1,3.061124790E0
1.346198771E1,3.004061937E0,9.893598408E-2,-1.837465018E-1,3.011301916E0
1.347203371E1,2.944609404E0,1.113521755E-1,-1.781783551E-1,2.952096098E0
1.348207871E1,2.856342793E0,1.108722091E-1,-1.713730395E-1,2.863626287E0
1.349212471E1,2.814125299E0,-1.597917825E-1,-1.476437300E-1,2.822522504E0
1.350216971E1,2.769841671E0,-2.246339917E-1,-1.664669663E-1,2.783917126E0
1.351221571E1,2.719483614E0,-1.036369950E-1,-1.753203869E-1,2.727099007E0
1.352226171E1,2.702268362E0,2.747043967E-2,-1.836414188E-1,2.708640452E0
1.353230671E1,2.717680454E0,2.065640390E-1,-1.769816577E-1,2.731259464E0
1.354235271E1,2.755733252E0,1.392632723E-1,-1.715830266E-1,2.764579669E0
1.355239771E1,2.677178383E0,4.420467094E-2,-1.489440352E-1,2.681682769E0
1.356244371E1,2.689841270E0,-1.960237324E-2,-1.619626433E-1,2.694784261E0
1.357248871E1,2.718857050E0,-1.308535226E-2,-1.711550802E-1,2.724270351E0
1.358253471E1,2.717927933E0,3.858974203E-2,-1.614747345E-1,2.722993850E0
1.359258071E1,2.671372414E0,1.410319656E-1,-1.561049968E-1,2.679643513E0
1.360262571E1,2.712677479E0,8.427082002E-2,-1.626750231E-1,2.718857083E0
1.361267171E1,2.679236889E0,3.115388453E-1,-1.428504437E-1,2.701068864E0
1.362271671E1,2.757655859E0,5.069497824E-1,-1.416014284E-1,2.807439204E0
1.363276271E1,2.783825636E0,6.225887537E-1,-1.408448219E-1,2.856070586E0
1.364280771E1,2.762431383E0,8.170745969E-1,-1.197812110E-1,2.883224858E0
1.365285371E1,2.704828501E0,6.561759710E-1,-9.079643339E-2,2.784763565E0
1.366289971E1,2.630724907E0,4.106056392E-1,-7.350558788E-2,2.663590359E0
1.367294471E1,2.579461336E0,3.174618483E-1,-5.046871677E-2,2.599413376E0
1.368299071E1,2.480975866E0,3.120017946E-1,-3.402489796E-2,2.500748700E0
1.369303571E1,2.425721407E0,4.089355171E-1,-4.460030794E-2,2.460353997E0
1.370308171E1,2.323100328E0,5.159166455E-1,-2.380303666E-2,2.379817578E0
1.371312671E1,2.237135887E0,5.497033596E-1,4.534062464E-3,2.303686463E0
1.372317271E1,2.129301310E0,8.080475330E-1,2.506481716E-3,2.277470343E0
1.373321871E1,1.985924244E0,1.074259996E0,1.884950325E-2,2.257938207E0
1.374326371E1,1.840424657E0,1.201494813E0,3.386201710E-2,2.198158170E0
1.375330971E1,1.768696070E0,1.153870106E0,6.448543817E-2,2.112784982E0
1.376335471E1,1.634138465E0,1.030444264E0,6.609877944E-2,1.933026889E0
1.377340071E1,1.431384563E0,7.815253139E-1,7.428720593E-2,1.632532442E0
1.378344571E1,1.302334547E0,5.006285310E-1,8.132632077E-2,1.397611594E0
1.379349171E1,1.137317657E0,4.451428950E-1,7.352192700E-2,1.223539589E0
1.380353771E1,9.476094842E-1,4.389782250E-1,6.897366047E-2,1.046624566E0
1.381358271E1,7.881090641E-1,4.114363492E-1,6.274586171E-2,8.912535046E-1
1.382362871E1,6.618727446E-1,3.589482605E-1,5.508021265E-2,7.549524578E-1
1.383367371E1,5.078922510E-1,3.888861835E-1,4.309625179E-2,6.411273581E-1
1.384371971E1,3.929548264E-1,3.734900355E-1,3.563780710E-2,5.433031893E-1
1.385376471E1,3.059495986E-1,3.438157737E-1,2.787469141E-2,4.610763945E-1
1.386381071E1,2.516269684E-1,3.006457388E-1,2.607358620E-2,3.929170694E-1
1.387385671E1,2.011022866E-1,2.345998734E-1,1.948359422E-2,3.096107891E-1
1.388390171E1,2.411598563E-1,1.327910274E-1,2.506052703E-2,2.764408857E-1
1.389394771E1,3.135866523E-1,7.214952260E-2,3.297810629E-2,3.234651412E-1
1.390399271E1,3.643346429E-1,2.832173184E-2,3.869124502E-2,3.674763461E-1
1.391403871E1,4.022032022E-1,-2.001011558E-2,4.034826532E-2,4.047169420E-1
1.392408371E1,4.580642283E-1,-9.229940921E-2,4.766556993E-2,4.696956725E-1
1.393412971E1,4.959817827E-1,-1.373893917E-1,5.264594778E-2,5.173445366E-1
1.394417571E1,6.125633717E-1,-2.655178607E-1,6.159310788E-2,6.704679929E-1
1.395422071E1,7.132865191E-1,-3.843446374E-1,6.635057926E-2,8.129580911E-1
1.396426671E1,7.718219757E-1,-4.014582336E-1,7.319810241E-2,8.730611878E-1
1.397431171E1,8.197879195E-1,-4.219379425E-1,6.864622235E-2,9.245518721E-1
1.398435771E1,9.091676474E-1,-4.940394163E-1,7.181231678E-2,1.037216354E0
1.399440271E1,9.655907154E-1,-5.055935383E-1,7.433006912E-2,1.092481219E0
1.400444871E1,1.032090187E0,-5.427398086E-1,7.411050051E-2,1.168447269E0
1.401449471E1,1.075882673E0,-5.423517823E-1,6.380513310E-2,1.206540541E0
1.402453971E1,1.120809913E0,-5.547701120E-1,6.756802648E-2,1.252417732E0
1.403458571E1,1.210489750E0,-6.720058918E-1,7.130470872E-2,1.386348338E0
1.404463071E1,1.240884066E0,-7.339674234E-1,6.826337427E-2,1.443316088E0
1.405467671E1,1.206385255E0,-7.247571349E-1,4.907184094E-2,1.408206779E0
1.406472171E1,1.132248163E0,-6.514116526E-1,3.749149665E-2,1.306800925E0
1.407476771E1,1.154150009E0,-6.781181097E-1,2.860639058E-2,1.338926712E0
1.408481371E1,1.090418816E0,-6.090393662E-1,2.401483431E-2,1.249207291E0
1.409485871E1,1.017078876E0,-4.867581427E-1,1.685013250E-2,1.127682073E0
1.410490471E1,9.443495274E-1,-3.731508255E-1,1.183512714E-2,1.015469172E0
1.411494971E1,7.474330068E-1,-1.592446864E-1,9.970115498E-3,7.642737552E-1
1.412499571E1,5.588417053E-1,-2.106003463E-2,5.793478340E-3,5.592683981E-1
1.413504071E1,4.195154905E-1,2.653917484E-2,5.728835240E-4,4.203544966E-1
1.414508671E1,2.820075154E-1,1.117705405E-1,-1.603305573E-3,3.033536930E-1
1.415513271E1,1.585151255E-1,2.276766300E-1,-2.827560762E-3,2.774377191E-1
1.416517746E1,-2.190513071E-3,3.901554048E-1,-2.710663248E-3,3.901709701E-1
1.417522346E1,-3.819834907E-3,3.403795958E-1,-2.931705676E-3,3.404136531E-1
1.418526846E1,-4.068594426E-3,2.805649936E-1,-2.830480225E-4,2.805946351E-1
1.419531446E1,-1.608632272E-3,2.514015138E-1,-5.171399098E-4,2.514071922E-1
1.420535946E1,-3.569083754E-3,2.132668197E-1,-1.729680924E-3,2.133036956E-1
1.421540546E1,-2.468132880E-3,1.796912849E-1,-7.504365640E-4,1.797098014E-1
1.422545146E1,-2.904211171E-3,1.712920815E-1,1.259856159E-3,1.713213322E-1
1.423549646E1,-2.127899788E-3,1.865261644E-1,-9.867865592E-4,1.865409116E-1
1.424554246E1,-3.963149618E-3,2.232740819E-1,-1.223268919E-4,2.233092859E-1
1.425558746E1,-4.568219651E-3,2.537401021E-1,1.359996386E-4,2.537812572E-1
1.426563346E1,-1.705087954E-3,2.726819813E-1,5.655663554E-4,2.726878988E-1
1.427567846E1,-2.569549950E-3,2.534198761E-1,-4.802568583E-4,2.534333578E-1
1.428572446E1,-1.886347542E-3,2.233513743E-1,-2.982037840E-3,2.233792453E-1
1.429577046E1,-3.110602265E-3,1.536497921E-1,-2.726906911E-3,1.537054666E-1
1.430581546E1,-3.939098679E-3,9.401640296E-2,-3.786535235E-4,9.409964879E-2
1.431586146E1,-4.813947715E-3,8.517976850E-2,1.952943858E-3,8.533803984E-2
1.432590646E1,-5.652474705E-3,4.370201752E-2,2.385435626E-3,4.413056887E-2
1.433595246E1,-1.507607102E-2,-3.043053113E-2,2.283170354E-3,3.403700940E-2
1.434599746E1,-3.565405011E-1,2.967658639E-1,-1.592219993E-2,4.641601269E-1
1.435604346E1,-6.402531862E-1,5.862882137E-1,-3.295231611E-2,8.687599595E-1
1.436608946E1,-8.117316365E-1,6.564409733E-1,-4.393731430E-2,1.044870082E0
1.437613446E1,-9.613547325E-1,6.525378823E-1,-6.242711097E-2,1.163574559E0
1.438618046E1,-1.065751553E0,6.022282243E-1,-8.265674859E-2,1.226921898E0
1.439622546E1,-1.175037503E0,5.266599655E-1,-9.412964433E-2,1.291101949E0
1.440627146E1,-1.152699947E0,2.437549382E-1,-9.244506061E-2,1.181812053E0
1.441631646E1,-1.144242287E0,-5.358744878E-3,-9.401046485E-2,1.148110227E0
1.442636246E1,-1.213879824E0,-1.759875566E-2,-9.319955856E-2,1.217579607E0
1.443640846E1,-1.339789629E0,3.454780206E-2,-1.043440849E-1,1.344290701E0
1.444645346E1,-1.465732932E0,6.302171201E-2,-1.195042431E-1,1.471946340E0
1.445649946E1,-1.655774713E0,1.898121387E-1,-1.277576536E-1,1.671508470E0
1.446654446E1,-1.827486515E0,2.644719183E-1,-1.505820006E-1,1.852654122E0
1.447659046E1,-2.015793800E0,3.742886782E-1,-1.823210120E-1,2.058338556E0
1.448663646E1,-2.147202492E0,3.447669744E-1,-2.054295391E-1,2.184386436E0
1.449668146E1,-2.307993174E0,3.821114004E-1,-2.220298201E-1,2.349923159E0
1.450672746E1,-2.400261402E0,3.263442814E-1,-2.282493860E-1,2.433074839E0
1.451677246E1,-2.456815958E0,2.705159187E-1,-2.511174083E-1,2.484387946E0
1.452681846E1,-2.605371475E0,3.839508295E-1,-2.963056564E-1,2.650127507E0
1.453686346E1,-2.755111933E0,4.485359490E-1,-3.135171235E-1,2.808935607E0
1.454690946E1,-2.811723232E0,3.607071638E-1,-3.099572659E-1,2.851661042E0
1.455695546E1,-2.971323013E0,4.465991557E-1,-3.441195190E-1,3.024339514E0
1.456700046E1,-3.132235527E0,5.590417385E-1,-3.799144030E-1,3.204334879E0
1.457704646E1,-3.294090271E0,6.455918550E-1,-4.344998896E-1,3.384761396E0
1.458709146E1,-3.385413170E0,6.060508490E-1,-4.567544460E-1,3.469430009E0
1.459713746E1,-3.494470835E0,5.689511299E-1,-4.881019890E-1,3.573971930E0
1.460718246E1,-3.532840014E0,4.576927423E-1,-5.073177814E-1,3.598306899E0
1.461722846E1,-3.599186420E0,4.299029410E-1,-5.278686285E-1,3.663004875E0
1.462727446E1,-3.644195318E0,3.888446987E-1,-5.647975206E-1,3.708147240E0
1.463731946E1,-3.678018570E0,2.798969150E-1,-6.067444682E-1,3.738221734E0
1.464736546E1,-3.723143578E0,2.236514837E-1,-6.083223820E-1,3.779136701E0
1.465741046E1,-3.782228231E0,2.121871114E-1,-6.186639667E-1,3.838361482E0
1.466745646E1,-3.758707762E0,5.177582800E-2,-6.097233891E-1,3.808192141E0
1.467750146E1,-3.708363056E0,-6.716786325E-2,-6.047132015E-1,3.757944403E0
1.468754746E1,-3.723388195E0,-1.346572638E-1,-6.004094481E-1,3.773889735E0
1.469759346E1,-3.714540958E0,-1.732011884E-1,-6.202540398E-1,3.769950697E0
1.470763846E1,-3.727658987E0,-2.055204660E-1,-6.042994261E-1,3.781911948E0
1.471768446E1,-3.766908407E0,-2.493079007E-1,-5.858455896E-1,3.820336167E0
1.472772946E1,-3.763522387E0,-3.479724526E-1,-5.592094660E-1,3.820719933E0
1.473777546E1,-3.712516308E0,-5.137078762E-1,-5.677523613E-1,3.790648475E0
1.474782046E1,-3.769158363E0,-7.607074380E-1,-5.201280713E-1,3.880175741E0
1.475786646E1,-3.760913372E0,-1.269387126E0,-5.110192895E-1,4.002118662E0
1.476791246E1,-3.699322462E0,-1.837463021E0,-4.436285198E-1,4.154282525E0
1.477795746E1,-3.733286142E0,-1.544738293E0,-3.598569334E-1,4.056246889E0
1.478800346E1,-3.685263157E0,-9.742936492E-1,-3.218853474E-1,3.825444135E0
1.479804846E1,-3.638486385E0,-3.853859007E-1,-2.866730094E-1,3.670052708E0
1.480809446E1,-3.672750473E0,-3.782725632E-1,-2.801783383E-1,3.702794360E0
1.481813946E1,-3.728190660E0,-3.169181049E-1,-2.743577361E-1,3.751681603E0
1.482818546E1,-3.729557753E0,-3.165566623E-1,-2.589914203E-1,3.751917604E0
1.483823146E1,-3.585104942E0,-5.049718618E-1,-2.344581187E-1,3.628077265E0
1.484827646E1,-3.569665432E0,-5.406683087E-1,-2.120361775E-1,3.616599626E0
1.485832246E1,-3.562296629E0,-4.917371571E-1,-1.895256788E-1,3.601066882E0
1.486836746E1,-3.614660978E0,-3.792299926E-1,-1.709193736E-1,3.638516567E0
1.487841346E1,-3.598828316E0,-4.022620916E-1,-1.776648909E-1,3.625595792E0
1.488845846E1,-3.594379187E0,-3.622562289E-1,-1.674676389E-1,3.616467437E0
1.489850446E1,-3.714720964E0,-1.488637626E-1,-1.496423036E-1,3.720712980E0
1.490855046E1,-3.729331732E0,1.102803368E-2,-1.373158693E-1,3.731875190E0
1.491859546E1,-3.731260300E0,1.045417413E-1,-1.552037895E-1,3.735949761E0
1.492864146E1,-3.740256310E0,2.674244940E-1,-1.442528665E-1,3.752578049E0
1.493868646E1,-3.800199032E0,4.642558098E-1,-1.849289238E-1,3.832915972E0
1.494873246E1,-3.873142481E0,6.671547294E-1,-1.928860545E-1,3.934912088E0
1.495877746E1,-3.886368275E0,7.755701542E-1,-2.369006574E-1,3.970074225E0
1.496882346E1,-3.790134907E0,6.933733821E-1,-2.640742064E-1,3.862075148E0
1.497886946E1,-3.812155724E0,7.612347007E-1,-2.813048661E-1,3.897581552E0
1.498891446E1,-3.854610682E0,8.084234595E-1,-3.116362691E-1,3.950783360E0
1.499896046E1,-3.813288689E0,6.870400906E-1,-3.386567235E-1,3.889457942E0
1.500900546E1,-3.776619434E0,7.177391648E-1,-3.610528111E-1,3.861134936E0
1.501905146E1,-3.888887882E0,9.879666567E-1,-3.954043984E-1,4.031857105E0
1.502909746E1,-3.978571177E0,1.053619146E0,-4.492657781E-1,4.140166863E0
1.503914246E1,-4.006201267E0,1.000892282E0,-5.140676498E-1,4.161213705E0
1.504918846E1,-4.008571625E0,8.537955880E-1,-5.556800961E-1,4.135987639E0
1.505923346E1,-3.924430847E0,8.172096610E-1,-5.591805577E-1,4.047427825E0
1.506927946E1,-3.789224863E0,4.050135911E-1,-5.669716597E-1,3.852754590E0
1.507932446E1,-3.714966536E0,4.703470767E-1,-5.904769897E-1,3.790892482E0
1.508937046E1,-3.620634556E0,5.175486803E-1,-5.634834170E-1,3.700589789E0
1.509941646E1,-3.486178160E0,1.696772724E-1,-5.698718429E-1,3.536521236E0
1.510946146E1,-3.441746473E0,-1.999524981E-1,-5.865925550E-1,3.497097456E0
1.511950746E1,-3.485967159E0,-5.117308497E-1,-5.639519691E-1,3.568175629E0
1.512955246E1,-3.593117237E0,-8.629195094E-1,-5.483000875E-1,3.735740160E0
1.513959846E1,-3.624060154E0,-1.161762118E0,-4.894042909E-1,3.837058741E0
1.514964346E1,-3.533394814E0,-1.267198443E0,-4.590194821E-1,3.781715178E0
1.515969033E1,-3.378527880E0,-8.436069489E-1,-4.061519802E-1,3.505864052E0
1.516973633E1,-3.209440947E0,-4.592718482E-1,-3.497229218E-1,3.260942800E0
1.517978133E1,-3.056183100E0,-5.658918023E-1,-3.299447000E-1,3.125596291E0
1.518982733E1,-2.967951536E0,-6.311956048E-1,-2.999493778E-1,3.049116895E0
1.519987233E1,-2.944743872E0,-5.472607613E-1,-2.760496438E-1,3.007858743E0
1.520991833E1,-3.087712526E0,-3.483392894E-1,-2.843749523E-1,3.120284926E0
1.521996333E1,-3.174674749E0,-2.178225666E-1,-2.645690441E-1,3.193118102E0
1.523000933E1,-3.122693062E0,-3.250983953E-1,-2.647688985E-1,3.150714759E0
1.524005533E1,-3.115293503E0,-3.268576860E-1,-2.461238354E-1,3.142048137E0
1.525010033E1,-3.100558043E0,-3.671341538E-1,-2.281305939E-1,3.130541683E0
1.526014633E1,-3.051966429E0,-4.901588857E-1,-2.253292203E-1,3.099278638E0
1.527019133E1,-3.204055309E0,-1.994768232E-1,-2.240125537E-1,3.218065110E0
1.528023733E1,-3.289217710E0,-4.912567884E-2,-2.207717448E-1,3.296984477E0
1.529028233E1,-3.395342827E0,1.493107080E-1,-2.220346332E-1,3.405869342E0
1.530032833E1,-3.380236149E0,1.546631306E-1,-2.251353413E-1,3.391253902E0
1.531037433E1,-3.346934080E0,1.272927821E-1,-2.437010258E-1,3.358208061E0
1.532041933E1,-3.377741098E0,1.606286466E-1,-2.383470088E-1,3.389947756E0
1.533046533E1,-3.335112333E0,1.342495531E-1,-2.455359697E-1,3.346832104E0
1.534051033E1,-3.311982393E0,1.944814771E-1,-2.408884913E-1,3.326421152E0
1.535055633E1,-3.320652962E0,3.143594861E-1,-2.522957325E-1,3.345027820E0
1.536060233E1,-3.236777067E0,3.596638441E-1,-2.720177472E-1,3.268038788E0
1.537064733E1,-3.113790274E0,3.271361589E-1,-2.732161582E-1,3.142825958E0
1.538069333E1,-3.016065598E0,3.152475357E-1,-2.714462280E-1,3.044620790E0
1.539073833E1,-2.821559668E0,1.486151218E-1,-2.536120117E-1,2.836830003E0
1.540078433E1,-2.587174654E0,-8.905682713E-2,-2.422264516E-1,2.600014897E0
1.541082933E1,-2.416223049E0,-2.490580976E-1,-2.120391130E-1,2.438262567E0
1.542087533E1,-2.363639593E0,-2.423972636E-1,-2.194261849E-1,2.386146770E0
1.543092133E1,-2.426606655E0,-1.009487510E-1,-2.083099037E-1,2.437622515E0
1.544096633E1,-2.396020651E0,-6.116272509E-2,-1.977012008E-1,2.404941081E0
1.545101233E1,-2.303083897E0,-2.346368134E-2,-1.996369064E-1,2.311839284E0
1.546105733E1,-2.152960539E0,-7.328502834E-2,-1.827873588E-1,2.161948426E0
1.547110333E1,-1.921484709E0,-2.148118913E-1,-1.547204256E-1,1.939635544E0
1.548114833E1,-1.792572021E0,-2.512844205E-1,-1.351443231E-1,1.815136992E0
1.549119433E1,-1.649901032E0,-2.786767781E-1,-1.202404797E-1,1.677585150E0
1.550124033E1,-1.511288047E0,-2.835066915E-1,-1.150576994E-1,1.541948728E0
1.551128533E1,-1.338362336E0,-3.377612233E-1,-8.420990407E-2,1.382891064E0
1.552133133E1,-1.132967949E0,-4.011670947E-1,-7.474396378E-2,1.204216787E0
1.553137633E1,-1.019480109E0,-4.136066735E-1,-5.997582152E-2,1.101819982E0
1.554142233E1,-9.375302792E-1,-4.287067950E-1,-4.826856405E-2,1.032028292E0
1.555146733E1,-8.816568255E-1,-3.782947958E-1,-4.354011640E-2,9.603756829E-1
1.556151333E1,-8.053678870E-1,-3.313981295E-1,-4.016349465E-2,8.718114819E-1
1.557155933E1,-7.141649723E-1,-3.263460398E-1,-3.782590479E-2,7.861069548E-1
1.558160433E1,-5.280400515E-1,-4.295784235E-1,-2.570186183E-2,6.811934406E-1
1.559165033E1,-3.186818063E-1,-4.855294526E-1,-9.922631085E-3,5.808574710E-1
1.560169533E1,-1.455861628E-1,-5.185864568E-1,1.388612902E-3,5.386364007E-1
1.561174133E1,2.647901187E-3,-5.417580605E-1,3.702627495E-3,5.417771838E-1
1.562178733E1,7.944395766E-3,-4.885145724E-1,7.015333045E-3,4.886295281E-1
1.563183233E1,1.125054341E-2,-3.546860814E-1,8.783144876E-3,3.549731465E-1
1.564187833E1,1.696036011E-2,-2.108013630E-1,8.152774535E-3,2.116396376E-1
1.565192333E1,8.496146649E-2,-1.468729377E-1,8.631194010E-3,1.698958743E-1
1.566196933E1,3.240952194E-1,-2.066816837E-1,5.969363730E-3,3.844355120E-1
1.567201433E1,3.450357914E-1,-8.580423146E-2,-4.739865195E-3,3.555763347E-1
1.568206033E1,3.226580322E-1,7.173399627E-2,2.599007683E-3,3.305461039E-1
1.569210633E1,3.976655304E-1,7.924047858E-2,1.243181527E-2,4.056741027E-1
1.570215133E1,4.761936069E-1,7.200334221E-2,1.004269347E-2,4.817112083E-1
1.571219733E1,4.855259061E-1,1.344562024E-1,1.164017990E-2,5.039338941E-1
1.572224233E1,5.427936912E-1,1.604720801E-1,6.629709154E-3,5.660567398E-1
1.573228833E1,5.747198462E-1,2.116007507E-1,1.183939073E-2,6.125503657E-1
1.574233333E1,5.971450210E-1,2.592084706E-1,1.151581667E-2,6.510789670E-1
1.575237933E1,6.751220822E-1,2.426242530E-1,1.218014117E-2,7.174989268E-1
1.576242533E1,8.042254448E-1,1.632697731E-1,2.967468696E-3,8.206365765E-1
1.577247033E1,9.335637093E-1,1.077790782E-1,2.531618439E-2,9.401055463E-1
1.578251633E1,9.948872924E-1,1.236288771E-1,3.100229986E-2,1.003018428E0
1.579256133E1,1.061395884E0,1.385699809E-1,1.056026854E-2,1.070455221E0
1.580260733E1,1.135304213E0,1.458934098E-1,3.198113665E-2,1.145086606E0
1.581265233E1,1.224573851E0,1.097598970E-1,3.510490432E-2,1.229984026E0
1.582269833E1,1.271164179E0,1.069702357E-1,4.586886987E-2,1.276481474E0
1.583274433E1,1.404321551E0,5.013696104E-2,4.604915902E-2,1.405970576E0
1.584278933E1,1.488525152E0,4.588549584E-2,4.237186536E-2,1.489834884E0
1.585283533E1,1.525802135E0,8.784131706E-2,4.356402159E-2,1.528949338E0
1.586288033E1,1.659813166E0,-9.014394134E-3,4.967144877E-2,1.660580699E0
1.587292633E1,1.828923345E0,-1.854959130E-1,6.660304219E-2,1.839512245E0
1.588297133E1,1.945404649E0,-3.212444186E-1,7.860431075E-2,1.973315956E0
1.589301733E1,2.003344536E0,-2.992690206E-1,5.747904629E-2,2.026389675E0
1.590306333E1,1.992674589E0,-1.844356805E-1,4.275149852E-2,2.001648378E0
1.591310833E1,1.933496714E0,9.167261422E-3,4.484993964E-2,1.934038546E0
1.592315433E1,1.955060840E0,9.903429449E-2,4.279344529E-2,1.958035229E0
1.593319933E1,2.041874647E0,7.312559336E-2,3.683382645E-2,2.043515637E0
1.594324533E1,2.205642939E0,-5.328533798E-2,6.594617665E-2,2.207271845E0
1.595329133E1,2.311770201E0,-1.239015907E-1,5.148414150E-2,2.315660528E0
1.596333633E1,2.404461861E0,-1.382200867E-1,7.650347799E-2,2.409646118E0
1.597338233E1,2.449694872E0,-1.176650673E-1,4.335616529E-2,2.452902320E0
1.598342733E1,2.463761806E0,-4.560738429E-2,5.725893378E-2,2.464849054E0
1.599347333E1,2.464969158E0,-4.279181361E-3,5.106496066E-2,2.465501753E0
1.600351833E1,2.442768335E0,1.488573700E-1,5.144978687E-2,2.447840423E0
1.601356433E1,2.430022240E0,2.471752912E-1,3.357850015E-2,2.442791687E0
1.602361033E1,2.431216478E0,3.217003942E-1,7.115118206E-2,2.453439871E0
1.603365533E1,2.549059629E0,1.523811519E-1,8.888503909E-2,2.555156661E0
1.604370133E1,2.625854731E0,1.168119609E-1,7.798977941E-2,2.629608432E0
1.605374633E1,2.624945641E0,2.424113750E-1,7.491435856E-2,2.637179374E0
1.606379233E1,2.555139542E0,4.667994678E-1,7.991390675E-2,2.598658510E0
1.607383733E1,2.611049414E0,4.568913579E-1,9.737506509E-2,2.652510256E0
1.608388333E1,2.734315634E0,2.935130596E-1,1.184526533E-1,2.752573874E0
1.609392933E1,2.832994699E0,1.580983996E-1,1.303823888E-1,2.840396740E0
1.610397433E1,3.010804415E0,-5.761364847E-2,1.456183344E-1,3.014874335E0
1.611402033E1,3.107315540E0,-1.635389924E-1,1.453652084E-1,3.115009777E0
1.612406533E1,3.162895679E0,-2.110183537E-1,1.487479657E-1,3.173415161E0
1.613411133E1,3.221555948E0,-2.480450273E-1,1.361304522E-1,3.233957415E0
1.614415633E1,3.254473448E0,-2.343888581E-1,1.403363794E-1,3.265919451E0
1.615420233E1,3.233170509E0,-1.678509414E-1,1.300541759E-1,3.240135733E0
1.616424771E1,3.298254251E0,-2.103635073E-1,1.309564561E-1,3.307549471E0
1.617429271E1,3.320797443E0,-2.327387929E-1,1.327498257E-1,3.331589039E0
